Task,Block,Trial,Digit,TrialType,RT,Acc,Probe_Set,Probe_Type,Probe_Response
SART,P1,0.0,6.0,Go,0.8237380981445312,1.0,,,
SART,P1,1.0,9.0,Go,0.48401546478271484,1.0,,,
SART,P1,2.0,7.0,Go,0.46094799041748047,1.0,,,
SART,P1,3.0,8.0,Go,0.3813149929046631,1.0,,,
SART,P1,4.0,4.0,Go,0.4386708736419678,1.0,,,
SART,P1,5.0,1.0,Go,0.39274072647094727,1.0,,,
SART,P1,6.0,3.0,NoGo,,1.0,,,
SART,P1,7.0,5.0,Go,0.483776330947876,1.0,,,
SART,P1,8.0,2.0,Go,0.3525080680847168,1.0,,,
SART,P1,9.0,4.0,Go,0.3276982307434082,1.0,,,
SART,P1,10.0,3.0,NoGo,,1.0,,,
SART,P1,11.0,6.0,Go,0.26277780532836914,1.0,,,
SART,P1,12.0,2.0,Go,0.250720739364624,1.0,,,
SART,P1,13.0,9.0,Go,0.23545575141906738,1.0,,,
SART,P1,14.0,8.0,Go,0.27930474281311035,1.0,,,
SART,P1,15.0,7.0,Go,0.5414319038391113,1.0,,,
SART,P1,16.0,5.0,Go,0.3201150894165039,1.0,,,
SART,P1,17.0,1.0,Go,0.3074030876159668,1.0,,,
SART,P1,18.0,4.0,Go,0.42533445358276367,1.0,,,
SART,P1,19.0,2.0,Go,0.4046752452850342,1.0,,,
SART,P1,20.0,5.0,Go,0.32298946380615234,1.0,,,
SART,P1,21.0,7.0,Go,0.33132386207580566,1.0,,,
SART,P1,22.0,8.0,Go,0.45575380325317383,1.0,,,
SART,P1,23.0,3.0,NoGo,,1.0,,,
SART,P1,24.0,1.0,Go,0.23973369598388672,1.0,,,
SART,P1,25.0,6.0,Go,0.30980968475341797,1.0,,,
SART,P1,26.0,9.0,Go,0.277667760848999,1.0,,,
SART,P2,0.0,2.0,Go,6.794929504394531e-05,1.0,,,
SART,P2,1.0,1.0,Go,0.5581214427947998,1.0,,,
SART,P2,2.0,4.0,Go,0.2775576114654541,1.0,,,
SART,P2,3.0,3.0,NoGo,0.2728447914123535,0.0,,,
SART,P2,4.0,9.0,Go,0.2960073947906494,1.0,,,
SART,P2,5.0,5.0,Go,0.2799983024597168,1.0,,,
SART,P2,6.0,8.0,Go,0.3083674907684326,1.0,,,
SART,P2,7.0,7.0,Go,0.27629733085632324,1.0,,,
SART,P2,8.0,6.0,Go,0.3641505241394043,1.0,,,
SART,P2,9.0,3.0,NoGo,0.2987027168273926,0.0,,,
SART,P2,10.0,2.0,Go,0.25998425483703613,1.0,,,
SART,P2,11.0,6.0,Go,0.2633335590362549,1.0,,,
SART,P2,12.0,8.0,Go,0.33888936042785645,1.0,,,
SART,P2,13.0,7.0,Go,0.2660191059112549,1.0,,,
SART,P2,14.0,9.0,Go,0.33367085456848145,1.0,,,
SART,P2,15.0,1.0,Go,0.31365966796875,1.0,,,
SART,P2,16.0,4.0,Go,0.09771013259887695,1.0,,,
SART,P2,17.0,5.0,Go,0.4395179748535156,1.0,,,
SART,P2,18.0,9.0,Go,0.44562649726867676,1.0,,,
SART,P2,19.0,6.0,Go,0.39667415618896484,1.0,,,
SART,P2,20.0,4.0,Go,0.4591948986053467,1.0,,,
SART,P2,21.0,8.0,Go,0.46752190589904785,1.0,,,
SART,P2,22.0,2.0,Go,0.3419840335845947,1.0,,,
SART,P2,23.0,3.0,NoGo,,1.0,,,
SART,P2,24.0,7.0,Go,0.26725172996520996,1.0,,,
SART,P2,25.0,1.0,Go,0.33440208435058594,1.0,,,
SART,P2,26.0,5.0,Go,0.3179965019226074,1.0,,,
SART,1,0.0,6.0,Go,0.7999138832092285,1.0,,,
SART,1,1.0,7.0,Go,0.5594406127929688,1.0,,,
SART,1,2.0,5.0,Go,0.47698545455932617,1.0,,,
SART,1,3.0,8.0,Go,0.42511415481567383,1.0,,,
SART,1,4.0,1.0,Go,0.33664536476135254,1.0,,,
SART,1,5.0,4.0,Go,0.37606024742126465,1.0,,,
SART,1,6.0,3.0,NoGo,,1.0,,,
SART,1,7.0,2.0,Go,0.28706836700439453,1.0,,,
SART,1,8.0,9.0,Go,0.2565326690673828,1.0,,,
SART,1,9.0,7.0,Go,0.28454136848449707,1.0,,,
SART,1,10.0,8.0,Go,0.3232908248901367,1.0,,,
SART,1,11.0,3.0,NoGo,,1.0,,,
SART,1,12.0,6.0,Go,0.25920867919921875,1.0,,,
SART,1,13.0,1.0,Go,0.45926618576049805,1.0,,,
SART,1,14.0,9.0,Go,0.36351728439331055,1.0,,,
SART,1,15.0,2.0,Go,0.3436105251312256,1.0,,,
SART,1,16.0,4.0,Go,0.34314417839050293,1.0,,,
SART,1,17.0,5.0,Go,0.31355905532836914,1.0,,,
SART,1,18.0,7.0,Go,0.3830077648162842,1.0,,,
SART,1,19.0,6.0,Go,0.40418124198913574,1.0,,,
SART,1,20.0,2.0,Go,0.3490257263183594,1.0,,,
SART,1,21.0,8.0,Go,0.3397812843322754,1.0,,,
SART,1,22.0,3.0,NoGo,0.3574063777923584,0.0,,,
SART,1,23.0,4.0,Go,0.26099681854248047,1.0,,,
SART,1,24.0,1.0,Go,0.308274507522583,1.0,,,
SART,1,25.0,5.0,Go,0.27654337882995605,1.0,,,
SART,1,26.0,9.0,Go,0.3801553249359131,1.0,,,
SART,1,27.0,4.0,Go,0.2827606201171875,1.0,,,
SART,1,28.0,9.0,Go,0.2957119941711426,1.0,,,
SART,1,29.0,2.0,Go,0.31733083724975586,1.0,,,
SART,1,30.0,8.0,Go,0.28972887992858887,1.0,,,
SART,1,31.0,5.0,Go,0.3267190456390381,1.0,,,
SART,1,32.0,1.0,Go,0.5012104511260986,1.0,,,
SART,1,33.0,7.0,Go,0.44078588485717773,1.0,,,
SART,1,34.0,3.0,NoGo,,1.0,,,
SART,1,35.0,6.0,Go,0.24256014823913574,1.0,,,
SART,1,36.0,9.0,Go,0.25005626678466797,1.0,,,
SART,1,37.0,7.0,Go,0.04249000549316406,1.0,,,
SART,1,38.0,6.0,Go,0.23172879219055176,1.0,,,
SART,1,39.0,8.0,Go,0.3058929443359375,1.0,,,
SART,1,40.0,1.0,Go,0.28202199935913086,1.0,,,
SART,1,41.0,3.0,NoGo,0.2948768138885498,0.0,,,
SART,1,42.0,4.0,Go,0.28575944900512695,1.0,,,
SART,1,43.0,5.0,Go,0.2677342891693115,1.0,,,
SART,1,44.0,2.0,Go,0.322390079498291,1.0,,,
SART,1,45.0,4.0,Go,0.2812485694885254,1.0,,,
SART,1,46.0,1.0,Go,0.2642385959625244,1.0,,,
SART,1,47.0,5.0,Go,0.3031766414642334,1.0,,,
SART,1,48.0,2.0,Go,0.2094101905822754,1.0,,,
SART,1,49.0,9.0,Go,0.3714737892150879,1.0,,,
SART,1,50.0,7.0,Go,0.27527737617492676,1.0,,,
SART,1,51.0,3.0,NoGo,0.25757646560668945,0.0,,,
SART,1,52.0,8.0,Go,0.27135586738586426,1.0,,,
SART,1,53.0,6.0,Go,0.33658409118652344,1.0,,,
SART,1,54.0,8.0,Go,0.2729978561401367,1.0,,,
SART,1,55.0,4.0,Go,0.3180835247039795,1.0,,,
,1,,,,,,1.0,Focus,2.0
,1,,,,,,1.0,Looking,1.0
,1,,,,,,1.0,Awareness,2.0
,1,,,,,,1.0,Intentionality,3.0
,1,,,,,,1.0,Engaging_Thoughts,3.0
,1,,,,,,1.0,Perf_Rating,3.0
,1,,,,,,1.0,Vigilance,4.0
SART,1,56.0,3.0,NoGo,,1.0,,,
SART,1,57.0,2.0,Go,0.42679905891418457,1.0,,,
SART,1,58.0,5.0,Go,0.4392828941345215,1.0,,,
SART,1,59.0,6.0,Go,0.42265987396240234,1.0,,,
SART,1,60.0,7.0,Go,0.5933794975280762,1.0,,,
SART,1,61.0,1.0,Go,0.31449198722839355,1.0,,,
SART,1,62.0,9.0,Go,0.2676999568939209,1.0,,,
SART,1,63.0,6.0,Go,0.2734353542327881,1.0,,,
SART,1,64.0,5.0,Go,0.45549988746643066,1.0,,,
SART,1,65.0,1.0,Go,0.4455282688140869,1.0,,,
SART,1,66.0,4.0,Go,0.3548409938812256,1.0,,,
SART,1,67.0,8.0,Go,0.29585838317871094,1.0,,,
SART,1,68.0,3.0,NoGo,0.33817362785339355,0.0,,,
SART,1,69.0,2.0,Go,0.32317376136779785,1.0,,,
SART,1,70.0,7.0,Go,0.28717708587646484,1.0,,,
SART,1,71.0,9.0,Go,0.3122432231903076,1.0,,,
SART,1,72.0,3.0,NoGo,0.32174134254455566,0.0,,,
SART,1,73.0,1.0,Go,0.26405763626098633,1.0,,,
SART,1,74.0,9.0,Go,0.2802731990814209,1.0,,,
SART,1,75.0,8.0,Go,0.3275160789489746,1.0,,,
SART,1,76.0,2.0,Go,0.3217446804046631,1.0,,,
SART,1,77.0,4.0,Go,0.35538697242736816,1.0,,,
SART,1,78.0,7.0,Go,0.3203613758087158,1.0,,,
SART,1,79.0,6.0,Go,0.23729634284973145,1.0,,,
SART,1,80.0,5.0,Go,0.3432273864746094,1.0,,,
SART,1,81.0,6.0,Go,0.3514690399169922,1.0,,,
SART,1,82.0,4.0,Go,0.32421159744262695,1.0,,,
SART,1,83.0,1.0,Go,0.3143742084503174,1.0,,,
SART,1,84.0,5.0,Go,0.3128516674041748,1.0,,,
SART,1,85.0,7.0,Go,0.30997419357299805,1.0,,,
SART,1,86.0,3.0,NoGo,0.2932624816894531,0.0,,,
SART,1,87.0,8.0,Go,0.2957570552825928,1.0,,,
SART,1,88.0,9.0,Go,0.3028700351715088,1.0,,,
SART,1,89.0,2.0,Go,0.34867024421691895,1.0,,,
SART,1,90.0,6.0,Go,0.26851367950439453,1.0,,,
SART,1,91.0,1.0,Go,0.3050074577331543,1.0,,,
SART,1,92.0,4.0,Go,0.3379671573638916,1.0,,,
SART,1,93.0,8.0,Go,0.3122596740722656,1.0,,,
SART,1,94.0,5.0,Go,0.2916684150695801,1.0,,,
SART,1,95.0,3.0,NoGo,0.2727687358856201,0.0,,,
SART,1,96.0,2.0,Go,0.26001644134521484,1.0,,,
SART,1,97.0,9.0,Go,0.27045178413391113,1.0,,,
SART,1,98.0,7.0,Go,0.2764310836791992,1.0,,,
SART,1,99.0,3.0,NoGo,0.30758166313171387,0.0,,,
SART,1,100.0,9.0,Go,0.28059935569763184,1.0,,,
SART,1,101.0,5.0,Go,0.25011587142944336,1.0,,,
SART,1,102.0,2.0,Go,0.36565065383911133,1.0,,,
SART,1,103.0,1.0,Go,0.3166019916534424,1.0,,,
SART,1,104.0,6.0,Go,0.318530797958374,1.0,,,
SART,1,105.0,8.0,Go,0.37766289710998535,1.0,,,
SART,1,106.0,7.0,Go,0.4275188446044922,1.0,,,
SART,1,107.0,4.0,Go,0.46086549758911133,1.0,,,
SART,1,108.0,1.0,Go,0.30248284339904785,1.0,,,
SART,1,109.0,6.0,Go,0.36487555503845215,1.0,,,
SART,1,110.0,3.0,NoGo,0.34561753273010254,0.0,,,
SART,1,111.0,7.0,Go,0.29510045051574707,1.0,,,
,1,,,,,,2.0,Focus,2.0
,1,,,,,,2.0,Looking,1.0
,1,,,,,,2.0,Awareness,1.0
,1,,,,,,2.0,Intentionality,2.0
,1,,,,,,2.0,Engaging_Thoughts,4.0
,1,,,,,,2.0,Perf_Rating,1.0
,1,,,,,,2.0,Vigilance,4.0
SART,1,112.0,2.0,Go,,0.0,,,
SART,1,113.0,4.0,Go,0.7266862392425537,1.0,,,
SART,1,114.0,9.0,Go,0.28765392303466797,1.0,,,
SART,1,115.0,8.0,Go,0.33434510231018066,1.0,,,
SART,1,116.0,5.0,Go,0.39934444427490234,1.0,,,
SART,1,117.0,6.0,Go,0.3651125431060791,1.0,,,
SART,1,118.0,9.0,Go,0.3251023292541504,1.0,,,
SART,1,119.0,3.0,NoGo,0.3222322463989258,0.0,,,
SART,1,120.0,8.0,Go,0.2523772716522217,1.0,,,
SART,1,121.0,7.0,Go,0.2803189754486084,1.0,,,
SART,1,122.0,5.0,Go,0.3052246570587158,1.0,,,
SART,1,123.0,2.0,Go,0.31988072395324707,1.0,,,
SART,1,124.0,1.0,Go,0.3199758529663086,1.0,,,
SART,1,125.0,4.0,Go,0.2777714729309082,1.0,,,
SART,1,126.0,8.0,Go,0.3520653247833252,1.0,,,
SART,1,127.0,4.0,Go,0.3474464416503906,1.0,,,
SART,1,128.0,1.0,Go,0.38553428649902344,1.0,,,
SART,1,129.0,3.0,NoGo,0.2785003185272217,0.0,,,
SART,1,130.0,9.0,Go,0.2615959644317627,1.0,,,
SART,1,131.0,5.0,Go,0.2535679340362549,1.0,,,
SART,1,132.0,6.0,Go,0.2617650032043457,1.0,,,
SART,1,133.0,2.0,Go,0.27353835105895996,1.0,,,
SART,1,134.0,7.0,Go,0.29485201835632324,1.0,,,
SART,1,135.0,3.0,NoGo,0.30468106269836426,0.0,,,
SART,1,136.0,8.0,Go,0.2432537078857422,1.0,,,
SART,1,137.0,7.0,Go,0.43888258934020996,1.0,,,
SART,1,138.0,1.0,Go,0.3394205570220947,1.0,,,
SART,1,139.0,2.0,Go,0.3461620807647705,1.0,,,
SART,1,140.0,9.0,Go,0.29763245582580566,1.0,,,
SART,1,141.0,6.0,Go,0.5382101535797119,1.0,,,
SART,1,142.0,4.0,Go,0.36123085021972656,1.0,,,
SART,1,143.0,5.0,Go,0.3175497055053711,1.0,,,
SART,1,144.0,2.0,Go,0.33095312118530273,1.0,,,
SART,1,145.0,1.0,Go,0.34673023223876953,1.0,,,
SART,1,146.0,4.0,Go,0.33756542205810547,1.0,,,
SART,1,147.0,6.0,Go,0.4553513526916504,1.0,,,
SART,1,148.0,3.0,NoGo,,1.0,,,
SART,1,149.0,7.0,Go,0.2997279167175293,1.0,,,
SART,1,150.0,9.0,Go,0.3272895812988281,1.0,,,
SART,1,151.0,5.0,Go,0.35478734970092773,1.0,,,
SART,1,152.0,8.0,Go,0.35599708557128906,1.0,,,
SART,1,153.0,5.0,Go,0.29175543785095215,1.0,,,
SART,1,154.0,4.0,Go,0.33499765396118164,1.0,,,
SART,1,155.0,2.0,Go,0.5002486705780029,1.0,,,
SART,1,156.0,8.0,Go,0.5481700897216797,1.0,,,
SART,1,157.0,6.0,Go,0.3660259246826172,1.0,,,
SART,1,158.0,9.0,Go,0.5700347423553467,1.0,,,
SART,1,159.0,7.0,Go,0.6706085205078125,1.0,,,
SART,1,160.0,1.0,Go,0.42372870445251465,1.0,,,
SART,1,161.0,3.0,NoGo,,1.0,,,
SART,1,162.0,2.0,Go,0.43702173233032227,1.0,,,
SART,1,163.0,4.0,Go,0.2895164489746094,1.0,,,
SART,1,164.0,9.0,Go,0.2686119079589844,1.0,,,
SART,1,165.0,5.0,Go,0.36504316329956055,1.0,,,
SART,1,166.0,3.0,NoGo,0.28904032707214355,0.0,,,
,1,,,,,,3.0,Focus,2.0
,1,,,,,,3.0,Looking,1.0
,1,,,,,,3.0,Awareness,2.0
,1,,,,,,3.0,Intentionality,3.0
,1,,,,,,3.0,Engaging_Thoughts,3.0
,1,,,,,,3.0,Perf_Rating,2.0
,1,,,,,,3.0,Vigilance,4.0
SART,1,167.0,7.0,Go,0.8434534072875977,1.0,,,
SART,1,168.0,6.0,Go,0.4376554489135742,1.0,,,
SART,1,169.0,1.0,Go,0.3969240188598633,1.0,,,
SART,1,170.0,8.0,Go,0.42055201530456543,1.0,,,
SART,1,171.0,6.0,Go,0.3789055347442627,1.0,,,
SART,1,172.0,3.0,NoGo,,1.0,,,
SART,1,173.0,2.0,Go,0.4022824764251709,1.0,,,
SART,1,174.0,8.0,Go,0.22305059432983398,1.0,,,
SART,1,175.0,4.0,Go,0.2842285633087158,1.0,,,
SART,1,176.0,5.0,Go,0.3159654140472412,1.0,,,
SART,1,177.0,9.0,Go,0.3310518264770508,1.0,,,
SART,1,178.0,1.0,Go,0.33295345306396484,1.0,,,
SART,1,179.0,7.0,Go,0.2936863899230957,1.0,,,
SART,1,180.0,2.0,Go,0.3039212226867676,1.0,,,
SART,1,181.0,1.0,Go,0.3652491569519043,1.0,,,
SART,1,182.0,6.0,Go,0.30786991119384766,1.0,,,
SART,1,183.0,4.0,Go,0.27672457695007324,1.0,,,
SART,1,184.0,3.0,NoGo,0.25911378860473633,0.0,,,
SART,1,185.0,9.0,Go,0.2773468494415283,1.0,,,
SART,1,186.0,7.0,Go,0.33931922912597656,1.0,,,
SART,1,187.0,8.0,Go,0.308856725692749,1.0,,,
SART,1,188.0,5.0,Go,0.3664572238922119,1.0,,,
SART,1,189.0,1.0,Go,0.3555784225463867,1.0,,,
SART,1,190.0,6.0,Go,0.5233168601989746,1.0,,,
SART,1,191.0,2.0,Go,0.37073564529418945,1.0,,,
SART,1,192.0,8.0,Go,0.49286675453186035,1.0,,,
SART,1,193.0,4.0,Go,0.41944026947021484,1.0,,,
SART,1,194.0,7.0,Go,0.3273613452911377,1.0,,,
SART,1,195.0,3.0,NoGo,,1.0,,,
SART,1,196.0,5.0,Go,0.31156468391418457,1.0,,,
SART,1,197.0,9.0,Go,0.2422342300415039,1.0,,,
SART,1,198.0,3.0,NoGo,0.29569506645202637,0.0,,,
SART,1,199.0,9.0,Go,0.3207979202270508,1.0,,,
SART,1,200.0,8.0,Go,0.43166422843933105,1.0,,,
SART,1,201.0,4.0,Go,0.43167638778686523,1.0,,,
SART,1,202.0,2.0,Go,0.41933441162109375,1.0,,,
SART,1,203.0,5.0,Go,0.44022655487060547,1.0,,,
SART,1,204.0,7.0,Go,0.37952613830566406,1.0,,,
SART,1,205.0,6.0,Go,0.3238387107849121,1.0,,,
SART,1,206.0,1.0,Go,0.38886570930480957,1.0,,,
SART,1,207.0,9.0,Go,0.3192019462585449,1.0,,,
SART,1,208.0,8.0,Go,0.3405900001525879,1.0,,,
SART,1,209.0,3.0,NoGo,,1.0,,,
SART,1,210.0,1.0,Go,0.28676629066467285,1.0,,,
SART,1,211.0,5.0,Go,0.2424635887145996,1.0,,,
SART,1,212.0,4.0,Go,0.313446044921875,1.0,,,
SART,1,213.0,6.0,Go,0.3399465084075928,1.0,,,
SART,1,214.0,7.0,Go,0.32002830505371094,1.0,,,
SART,1,215.0,2.0,Go,0.6279423236846924,1.0,,,
SART,1,216.0,9.0,Go,0.3273801803588867,1.0,,,
SART,1,217.0,2.0,Go,0.3002305030822754,1.0,,,
SART,1,218.0,3.0,NoGo,,1.0,,,
SART,1,219.0,4.0,Go,0.26903796195983887,1.0,,,
SART,1,220.0,8.0,Go,0.29378533363342285,1.0,,,
SART,1,221.0,5.0,Go,0.40982818603515625,1.0,,,
SART,1,222.0,7.0,Go,0.29688453674316406,1.0,,,
SART,1,223.0,6.0,Go,0.319166898727417,1.0,,,
SART,1,224.0,1.0,Go,0.26235294342041016,1.0,,,
SART,1,225.0,6.0,Go,0.34914207458496094,1.0,,,
SART,1,226.0,4.0,Go,0.2915165424346924,1.0,,,
SART,1,227.0,7.0,Go,0.29129958152770996,1.0,,,
SART,1,228.0,9.0,Go,0.29133152961730957,1.0,,,
SART,1,229.0,2.0,Go,0.32677340507507324,1.0,,,
SART,1,230.0,5.0,Go,0.3171708583831787,1.0,,,
SART,1,231.0,1.0,Go,0.33966517448425293,1.0,,,
SART,1,232.0,3.0,NoGo,0.3123509883880615,0.0,,,
SART,1,233.0,8.0,Go,0.2503662109375,1.0,,,
SART,1,234.0,1.0,Go,0.349517822265625,1.0,,,
,1,,,,,,4.0,Focus,2.0
,1,,,,,,4.0,Looking,1.0
,1,,,,,,4.0,Awareness,3.0
,1,,,,,,4.0,Intentionality,3.0
,1,,,,,,4.0,Engaging_Thoughts,3.0
,1,,,,,,4.0,Perf_Rating,3.0
,1,,,,,,4.0,Vigilance,4.0
SART,1,235.0,9.0,Go,0.6219029426574707,1.0,,,
SART,1,236.0,8.0,Go,0.4011540412902832,1.0,,,
SART,1,237.0,2.0,Go,0.307448148727417,1.0,,,
SART,1,238.0,5.0,Go,0.3146524429321289,1.0,,,
SART,1,239.0,6.0,Go,0.3769657611846924,1.0,,,
SART,1,240.0,4.0,Go,0.3611879348754883,1.0,,,
SART,1,241.0,7.0,Go,0.24737763404846191,1.0,,,
SART,1,242.0,3.0,NoGo,0.27230143547058105,0.0,,,
SART,1,243.0,8.0,Go,0.2979092597961426,1.0,,,
SART,1,244.0,1.0,Go,0.2494184970855713,1.0,,,
SART,1,245.0,3.0,NoGo,0.36170029640197754,0.0,,,
SART,1,246.0,4.0,Go,0.28971266746520996,1.0,,,
SART,1,247.0,6.0,Go,0.35233283042907715,1.0,,,
SART,1,248.0,9.0,Go,0.38831353187561035,1.0,,,
SART,1,249.0,7.0,Go,0.31592631340026855,1.0,,,
SART,1,250.0,5.0,Go,0.38573670387268066,1.0,,,
SART,1,251.0,2.0,Go,0.4482707977294922,1.0,,,
SART,1,252.0,4.0,Go,0.3393871784210205,1.0,,,
SART,1,253.0,6.0,Go,0.3551058769226074,1.0,,,
SART,1,254.0,9.0,Go,0.3543739318847656,1.0,,,
SART,1,255.0,2.0,Go,0.38989686965942383,1.0,,,
SART,1,256.0,5.0,Go,0.3128993511199951,1.0,,,
SART,1,257.0,8.0,Go,0.36168861389160156,1.0,,,
SART,1,258.0,1.0,Go,0.37548089027404785,1.0,,,
SART,1,259.0,3.0,NoGo,,1.0,,,
SART,1,260.0,7.0,Go,0.29245924949645996,1.0,,,
SART,1,261.0,5.0,Go,0.47167134284973145,1.0,,,
SART,1,262.0,2.0,Go,0.2926623821258545,1.0,,,
SART,1,263.0,4.0,Go,0.3361856937408447,1.0,,,
SART,1,264.0,6.0,Go,0.3223273754119873,1.0,,,
SART,1,265.0,1.0,Go,0.3565249443054199,1.0,,,
SART,1,266.0,3.0,NoGo,,1.0,,,
SART,1,267.0,9.0,Go,0.2510640621185303,1.0,,,
SART,1,268.0,8.0,Go,0.4542107582092285,1.0,,,
SART,1,269.0,7.0,Go,0.4545719623565674,1.0,,,
SART,1,270.0,9.0,Go,0.4164876937866211,1.0,,,
SART,1,271.0,8.0,Go,0.3859748840332031,1.0,,,
SART,1,272.0,7.0,Go,0.4715142250061035,1.0,,,
SART,1,273.0,2.0,Go,0.5582723617553711,1.0,,,
SART,1,274.0,6.0,Go,0.3483278751373291,1.0,,,
SART,1,275.0,4.0,Go,0.34693455696105957,1.0,,,
SART,1,276.0,3.0,NoGo,,1.0,,,
SART,1,277.0,1.0,Go,0.25603270530700684,1.0,,,
SART,1,278.0,5.0,Go,0.27106690406799316,1.0,,,
SART,1,279.0,3.0,NoGo,0.2905576229095459,0.0,,,
SART,1,280.0,4.0,Go,0.23801898956298828,1.0,,,
SART,1,281.0,1.0,Go,0.32123613357543945,1.0,,,
SART,1,282.0,8.0,Go,0.2953643798828125,1.0,,,
SART,1,283.0,2.0,Go,0.33027005195617676,1.0,,,
SART,1,284.0,7.0,Go,0.3781726360321045,1.0,,,
SART,1,285.0,6.0,Go,0.41959047317504883,1.0,,,
SART,1,286.0,9.0,Go,0.38974809646606445,1.0,,,
SART,1,287.0,5.0,Go,0.35238051414489746,1.0,,,
SART,1,288.0,9.0,Go,0.34840965270996094,1.0,,,
SART,1,289.0,1.0,Go,0.47243642807006836,1.0,,,
SART,1,290.0,6.0,Go,0.48084235191345215,1.0,,,
SART,1,291.0,8.0,Go,0.3983640670776367,1.0,,,
SART,1,292.0,5.0,Go,0.34672045707702637,1.0,,,
SART,1,293.0,4.0,Go,0.33887624740600586,1.0,,,
SART,1,294.0,3.0,NoGo,,1.0,,,
SART,1,295.0,7.0,Go,0.0866541862487793,1.0,,,
SART,1,296.0,2.0,Go,0.32182765007019043,1.0,,,
SART,1,297.0,3.0,NoGo,0.329561710357666,0.0,,,
SART,1,298.0,6.0,Go,0.11658048629760742,1.0,,,
SART,1,299.0,4.0,Go,0.3427541255950928,1.0,,,
,1,,,,,,5.0,Focus,1.0
,1,,,,,,5.0,Looking,1.0
,1,,,,,,5.0,Awareness,3.0
,1,,,,,,5.0,Intentionality,3.0
,1,,,,,,5.0,Engaging_Thoughts,1.0
,1,,,,,,5.0,Perf_Rating,3.0
,1,,,,,,5.0,Vigilance,4.0
SART,1,300.0,8.0,Go,0.5974686145782471,1.0,,,
SART,1,301.0,7.0,Go,0.3315725326538086,1.0,,,
SART,1,302.0,1.0,Go,0.3327479362487793,1.0,,,
SART,1,303.0,9.0,Go,0.31394100189208984,1.0,,,
SART,1,304.0,2.0,Go,0.3691387176513672,1.0,,,
SART,1,305.0,5.0,Go,0.32720088958740234,1.0,,,
SART,1,306.0,2.0,Go,0.36605048179626465,1.0,,,
SART,1,307.0,9.0,Go,0.46837306022644043,1.0,,,
SART,1,308.0,7.0,Go,0.34807372093200684,1.0,,,
SART,1,309.0,3.0,NoGo,,1.0,,,
SART,1,310.0,4.0,Go,0.2858548164367676,1.0,,,
SART,1,311.0,1.0,Go,0.33904242515563965,1.0,,,
SART,1,312.0,6.0,Go,0.32731056213378906,1.0,,,
SART,1,313.0,8.0,Go,0.3029162883758545,1.0,,,
SART,1,314.0,5.0,Go,0.31397318840026855,1.0,,,
SART,1,315.0,6.0,Go,0.3532528877258301,1.0,,,
SART,1,316.0,4.0,Go,0.358792781829834,1.0,,,
SART,1,317.0,1.0,Go,0.3511624336242676,1.0,,,
SART,1,318.0,5.0,Go,0.34807348251342773,1.0,,,
SART,1,319.0,2.0,Go,0.3655874729156494,1.0,,,
SART,1,320.0,9.0,Go,0.39323949813842773,1.0,,,
SART,1,321.0,3.0,NoGo,,1.0,,,
SART,1,322.0,7.0,Go,0.26848435401916504,1.0,,,
SART,1,323.0,8.0,Go,0.3029215335845947,1.0,,,
SART,1,324.0,5.0,Go,0.31519293785095215,1.0,,,
SART,1,325.0,8.0,Go,0.362185001373291,1.0,,,
SART,1,326.0,1.0,Go,0.5094661712646484,1.0,,,
SART,1,327.0,6.0,Go,0.30806922912597656,1.0,,,
SART,1,328.0,2.0,Go,0.3199193477630615,1.0,,,
SART,1,329.0,9.0,Go,0.3836534023284912,1.0,,,
SART,1,330.0,7.0,Go,0.32659149169921875,1.0,,,
SART,1,331.0,4.0,Go,0.30623817443847656,1.0,,,
SART,1,332.0,3.0,NoGo,0.33540987968444824,0.0,,,
SART,1,333.0,4.0,Go,0.1848773956298828,1.0,,,
SART,1,334.0,8.0,Go,0.42442870140075684,1.0,,,
SART,1,335.0,3.0,NoGo,0.3499288558959961,0.0,,,
SART,1,336.0,2.0,Go,0.12338852882385254,1.0,,,
SART,1,337.0,7.0,Go,0.2933669090270996,1.0,,,
SART,1,338.0,5.0,Go,0.3993086814880371,1.0,,,
SART,1,339.0,6.0,Go,0.35231733322143555,1.0,,,
SART,1,340.0,9.0,Go,0.7525901794433594,1.0,,,
SART,1,341.0,1.0,Go,0.6026933193206787,1.0,,,
SART,1,342.0,3.0,NoGo,,1.0,,,
SART,1,343.0,4.0,Go,0.21558094024658203,1.0,,,
SART,1,344.0,1.0,Go,0.30033040046691895,1.0,,,
SART,1,345.0,6.0,Go,0.28566741943359375,1.0,,,
SART,1,346.0,8.0,Go,0.33196544647216797,1.0,,,
SART,1,347.0,9.0,Go,0.2887699604034424,1.0,,,
SART,1,348.0,7.0,Go,0.29250288009643555,1.0,,,
SART,1,349.0,5.0,Go,0.28120875358581543,1.0,,,
SART,1,350.0,2.0,Go,0.3404579162597656,1.0,,,
SART,1,351.0,5.0,Go,0.3153045177459717,1.0,,,
SART,1,352.0,2.0,Go,0.322861909866333,1.0,,,
SART,1,353.0,9.0,Go,0.3503549098968506,1.0,,,
SART,1,354.0,1.0,Go,0.2997779846191406,1.0,,,
SART,1,355.0,6.0,Go,0.3148078918457031,1.0,,,
SART,1,356.0,4.0,Go,0.28098607063293457,1.0,,,
SART,1,357.0,3.0,NoGo,0.369504451751709,0.0,,,
SART,1,358.0,8.0,Go,0.7715866565704346,1.0,,,
SART,1,359.0,7.0,Go,0.40566349029541016,1.0,,,
SART,1,360.0,1.0,Go,0.33176469802856445,1.0,,,
SART,1,361.0,8.0,Go,0.4533727169036865,1.0,,,
SART,1,362.0,4.0,Go,0.3636186122894287,1.0,,,
SART,1,363.0,2.0,Go,0.34328579902648926,1.0,,,
SART,1,364.0,6.0,Go,0.34731268882751465,1.0,,,
SART,1,365.0,7.0,Go,0.2895655632019043,1.0,,,
SART,1,366.0,9.0,Go,0.33716464042663574,1.0,,,
SART,1,367.0,3.0,NoGo,,1.0,,,
,1,,,,,,6.0,Focus,2.0
,1,,,,,,6.0,Looking,1.0
,1,,,,,,6.0,Awareness,3.0
,1,,,,,,6.0,Intentionality,3.0
,1,,,,,,6.0,Engaging_Thoughts,2.0
,1,,,,,,6.0,Perf_Rating,2.0
,1,,,,,,6.0,Vigilance,4.0
SART,1,368.0,5.0,Go,0.5994346141815186,1.0,,,
SART,1,369.0,3.0,NoGo,,1.0,,,
SART,1,370.0,8.0,Go,0.4333963394165039,1.0,,,
SART,1,371.0,7.0,Go,0.5992367267608643,1.0,,,
SART,1,372.0,6.0,Go,0.5546417236328125,1.0,,,
SART,1,373.0,9.0,Go,0.3027968406677246,1.0,,,
SART,1,374.0,2.0,Go,0.3210289478302002,1.0,,,
SART,1,375.0,1.0,Go,0.3857264518737793,1.0,,,
SART,1,376.0,4.0,Go,0.33587217330932617,1.0,,,
SART,1,377.0,5.0,Go,0.34157824516296387,1.0,,,
SART,1,378.0,2.0,Go,0.3024725914001465,1.0,,,
SART,1,379.0,8.0,Go,0.34780383110046387,1.0,,,
SART,1,380.0,1.0,Go,0.33739709854125977,1.0,,,
SART,1,381.0,4.0,Go,0.368563175201416,1.0,,,
SART,1,382.0,6.0,Go,0.3020906448364258,1.0,,,
SART,1,383.0,7.0,Go,0.31978535652160645,1.0,,,
SART,1,384.0,9.0,Go,0.36289238929748535,1.0,,,
SART,1,385.0,5.0,Go,0.3359951972961426,1.0,,,
SART,1,386.0,3.0,NoGo,0.3202996253967285,0.0,,,
SART,1,387.0,6.0,Go,0.3083672523498535,1.0,,,
SART,1,388.0,5.0,Go,0.336014986038208,1.0,,,
SART,1,389.0,1.0,Go,0.31560802459716797,1.0,,,
SART,1,390.0,2.0,Go,0.4164402484893799,1.0,,,
SART,1,391.0,7.0,Go,0.3747587203979492,1.0,,,
SART,1,392.0,3.0,NoGo,,1.0,,,
SART,1,393.0,8.0,Go,0.2857973575592041,1.0,,,
SART,1,394.0,9.0,Go,0.2984647750854492,1.0,,,
SART,1,395.0,4.0,Go,0.2832667827606201,1.0,,,
SART,1,396.0,3.0,NoGo,,1.0,,,
SART,1,397.0,2.0,Go,0.2643301486968994,1.0,,,
SART,1,398.0,5.0,Go,0.30677056312561035,1.0,,,
SART,1,399.0,7.0,Go,0.2884798049926758,1.0,,,
SART,1,400.0,1.0,Go,0.23300814628601074,1.0,,,
SART,1,401.0,4.0,Go,0.36182403564453125,1.0,,,
SART,1,402.0,8.0,Go,0.3071446418762207,1.0,,,
SART,1,403.0,6.0,Go,0.3281288146972656,1.0,,,
SART,1,404.0,9.0,Go,0.31992125511169434,1.0,,,
SART,1,405.0,2.0,Go,0.3350980281829834,1.0,,,
SART,1,406.0,5.0,Go,0.272507905960083,1.0,,,
SART,1,407.0,4.0,Go,0.38793468475341797,1.0,,,
SART,1,408.0,7.0,Go,0.37178683280944824,1.0,,,
SART,1,409.0,8.0,Go,0.3249032497406006,1.0,,,
,1,,,,,,7.0,Focus,1.0
,1,,,,,,7.0,Looking,1.0
,1,,,,,,7.0,Awareness,2.0
,1,,,,,,7.0,Intentionality,1.0
,1,,,,,,7.0,Engaging_Thoughts,1.0
,1,,,,,,7.0,Perf_Rating,3.0
,1,,,,,,7.0,Vigilance,4.0
SART,1,410.0,6.0,Go,0.8597447872161865,1.0,,,
SART,1,411.0,9.0,Go,0.35967278480529785,1.0,,,
SART,1,412.0,3.0,NoGo,,1.0,,,
SART,1,413.0,1.0,Go,0.2941420078277588,1.0,,,
SART,1,414.0,4.0,Go,0.30118227005004883,1.0,,,
SART,1,415.0,6.0,Go,0.32607245445251465,1.0,,,
SART,1,416.0,5.0,Go,0.31555700302124023,1.0,,,
SART,1,417.0,9.0,Go,0.370938777923584,1.0,,,
SART,1,418.0,8.0,Go,0.31339526176452637,1.0,,,
SART,1,419.0,1.0,Go,0.3213493824005127,1.0,,,
SART,1,420.0,7.0,Go,0.3115248680114746,1.0,,,
SART,1,421.0,2.0,Go,0.4437885284423828,1.0,,,
SART,1,422.0,3.0,NoGo,,1.0,,,
SART,1,423.0,2.0,Go,0.2761263847351074,1.0,,,
SART,1,424.0,5.0,Go,0.3102684020996094,1.0,,,
SART,1,425.0,4.0,Go,0.3830134868621826,1.0,,,
SART,1,426.0,6.0,Go,0.389737606048584,1.0,,,
SART,1,427.0,7.0,Go,0.26897311210632324,1.0,,,
SART,1,428.0,9.0,Go,0.40047240257263184,1.0,,,
SART,1,429.0,3.0,NoGo,,1.0,,,
SART,1,430.0,8.0,Go,0.34035634994506836,1.0,,,
SART,1,431.0,1.0,Go,0.33752942085266113,1.0,,,
SART,1,432.0,7.0,Go,0.47101473808288574,1.0,,,
SART,1,433.0,8.0,Go,0.34712767601013184,1.0,,,
SART,1,434.0,4.0,Go,0.32427239418029785,1.0,,,
SART,1,435.0,3.0,NoGo,,1.0,,,
SART,1,436.0,6.0,Go,0.25146985054016113,1.0,,,
SART,1,437.0,1.0,Go,0.3652994632720947,1.0,,,
SART,1,438.0,5.0,Go,0.4289853572845459,1.0,,,
SART,1,439.0,9.0,Go,0.5123913288116455,1.0,,,
SART,1,440.0,2.0,Go,0.4810218811035156,1.0,,,
SART,1,441.0,4.0,Go,0.5016279220581055,1.0,,,
SART,1,442.0,6.0,Go,0.43790578842163086,1.0,,,
SART,1,443.0,2.0,Go,0.4318845272064209,1.0,,,
SART,1,444.0,1.0,Go,0.3691720962524414,1.0,,,
SART,1,445.0,5.0,Go,0.4760916233062744,1.0,,,
SART,1,446.0,7.0,Go,0.4867744445800781,1.0,,,
SART,1,447.0,8.0,Go,0.43602895736694336,1.0,,,
SART,1,448.0,9.0,Go,0.5081620216369629,1.0,,,
SART,1,449.0,3.0,NoGo,,1.0,,,
,1,,,,,,8.0,Focus,1.0
,1,,,,,,8.0,Looking,1.0
,1,,,,,,8.0,Awareness,1.0
,1,,,,,,8.0,Intentionality,1.0
,1,,,,,,8.0,Engaging_Thoughts,1.0
,1,,,,,,8.0,Perf_Rating,4.0
,1,,,,,,8.0,Vigilance,4.0
SART,1,450.0,2.0,Go,0.595484733581543,1.0,,,
SART,1,451.0,6.0,Go,0.31585097312927246,1.0,,,
SART,1,452.0,3.0,NoGo,,1.0,,,
SART,1,453.0,5.0,Go,0.3749430179595947,1.0,,,
SART,1,454.0,7.0,Go,0.3195686340332031,1.0,,,
SART,1,455.0,9.0,Go,0.3554835319519043,1.0,,,
SART,1,456.0,1.0,Go,0.37570762634277344,1.0,,,
SART,1,457.0,4.0,Go,0.34482431411743164,1.0,,,
SART,1,458.0,8.0,Go,0.3104076385498047,1.0,,,
SART,1,459.0,1.0,Go,0.3284127712249756,1.0,,,
SART,1,460.0,8.0,Go,0.29649972915649414,1.0,,,
SART,1,461.0,6.0,Go,0.30440378189086914,1.0,,,
SART,1,462.0,2.0,Go,0.33618760108947754,1.0,,,
SART,1,463.0,3.0,NoGo,,1.0,,,
SART,1,464.0,7.0,Go,0.00569462776184082,1.0,,,
SART,1,465.0,4.0,Go,0.2657334804534912,1.0,,,
SART,1,466.0,9.0,Go,0.29485034942626953,1.0,,,
SART,1,467.0,5.0,Go,0.33289384841918945,1.0,,,
SART,1,468.0,4.0,Go,0.48639512062072754,1.0,,,
SART,1,469.0,7.0,Go,0.6108474731445312,1.0,,,
SART,1,470.0,6.0,Go,0.3095579147338867,1.0,,,
SART,1,471.0,9.0,Go,0.2852811813354492,1.0,,,
SART,1,472.0,3.0,NoGo,,1.0,,,
SART,1,473.0,1.0,Go,0.2907402515411377,1.0,,,
SART,1,474.0,8.0,Go,0.3284754753112793,1.0,,,
SART,1,475.0,5.0,Go,0.2964332103729248,1.0,,,
SART,1,476.0,2.0,Go,0.30309057235717773,1.0,,,
SART,1,477.0,1.0,Go,0.5140702724456787,1.0,,,
SART,1,478.0,5.0,Go,0.3237135410308838,1.0,,,
SART,1,479.0,9.0,Go,0.4869730472564697,1.0,,,
SART,1,480.0,3.0,NoGo,,1.0,,,
SART,1,481.0,4.0,Go,0.28258204460144043,1.0,,,
SART,1,482.0,2.0,Go,0.3233668804168701,1.0,,,
SART,1,483.0,7.0,Go,0.35138726234436035,1.0,,,
SART,1,484.0,6.0,Go,0.30223846435546875,1.0,,,
SART,1,485.0,8.0,Go,0.3272871971130371,1.0,,,
SART,1,486.0,4.0,Go,0.28253722190856934,1.0,,,
SART,1,487.0,6.0,Go,0.29466867446899414,1.0,,,
SART,1,488.0,8.0,Go,0.3151726722717285,1.0,,,
SART,1,489.0,1.0,Go,0.3052632808685303,1.0,,,
SART,1,490.0,5.0,Go,0.3513321876525879,1.0,,,
SART,1,491.0,3.0,NoGo,,1.0,,,
SART,1,492.0,2.0,Go,0.3081226348876953,1.0,,,
SART,1,493.0,7.0,Go,0.29503893852233887,1.0,,,
SART,1,494.0,9.0,Go,0.2810654640197754,1.0,,,
SART,1,495.0,1.0,Go,0.2992112636566162,1.0,,,
SART,1,496.0,2.0,Go,0.2716553211212158,1.0,,,
SART,1,497.0,9.0,Go,0.39338016510009766,1.0,,,
SART,1,498.0,4.0,Go,0.3913149833679199,1.0,,,
SART,1,499.0,7.0,Go,0.47254371643066406,1.0,,,
SART,1,500.0,8.0,Go,0.3189084529876709,1.0,,,
SART,1,501.0,3.0,NoGo,0.34657716751098633,0.0,,,
SART,1,502.0,6.0,Go,0.3282434940338135,1.0,,,
SART,1,503.0,5.0,Go,0.29563331604003906,1.0,,,
SART,1,504.0,7.0,Go,0.33219099044799805,1.0,,,
SART,1,505.0,2.0,Go,0.3322107791900635,1.0,,,
SART,1,506.0,1.0,Go,0.3135387897491455,1.0,,,
SART,1,507.0,5.0,Go,0.3792412281036377,1.0,,,
SART,1,508.0,3.0,NoGo,0.24384045600891113,0.0,,,
SART,1,509.0,9.0,Go,0.25385427474975586,1.0,,,
SART,1,510.0,6.0,Go,0.15315937995910645,1.0,,,
,1,,,,,,9.0,Focus,2.0
,1,,,,,,9.0,Looking,1.0
,1,,,,,,9.0,Awareness,3.0
,1,,,,,,9.0,Intentionality,3.0
,1,,,,,,9.0,Engaging_Thoughts,3.0
,1,,,,,,9.0,Perf_Rating,3.0
,1,,,,,,9.0,Vigilance,4.0
SART,1,511.0,4.0,Go,0.8006768226623535,1.0,,,
SART,1,512.0,8.0,Go,0.43449854850769043,1.0,,,
SART,1,513.0,9.0,Go,0.3235960006713867,1.0,,,
SART,1,514.0,8.0,Go,0.3044307231903076,1.0,,,
SART,1,515.0,7.0,Go,0.28844618797302246,1.0,,,
SART,1,516.0,4.0,Go,0.36527538299560547,1.0,,,
SART,1,517.0,5.0,Go,0.28078579902648926,1.0,,,
SART,1,518.0,6.0,Go,0.32207727432250977,1.0,,,
SART,1,519.0,2.0,Go,0.44875001907348633,1.0,,,
SART,1,520.0,3.0,NoGo,,1.0,,,
SART,1,521.0,1.0,Go,0.30556631088256836,1.0,,,
SART,1,522.0,7.0,Go,0.36184048652648926,1.0,,,
SART,1,523.0,1.0,Go,0.3738532066345215,1.0,,,
SART,1,524.0,4.0,Go,0.37320423126220703,1.0,,,
SART,1,525.0,9.0,Go,0.2914164066314697,1.0,,,
SART,1,526.0,8.0,Go,0.3762321472167969,1.0,,,
SART,1,527.0,2.0,Go,0.4263880252838135,1.0,,,
SART,1,528.0,3.0,NoGo,,1.0,,,
SART,1,529.0,5.0,Go,0.35655689239501953,1.0,,,
SART,1,530.0,6.0,Go,0.2777433395385742,1.0,,,
SART,1,531.0,8.0,Go,0.3085598945617676,1.0,,,
SART,1,532.0,6.0,Go,0.31816577911376953,1.0,,,
SART,1,533.0,3.0,NoGo,0.0849461555480957,0.0,,,
SART,1,534.0,9.0,Go,0.5780093669891357,1.0,,,
SART,1,535.0,7.0,Go,0.633880615234375,1.0,,,
SART,1,536.0,5.0,Go,0.5271918773651123,1.0,,,
SART,1,537.0,2.0,Go,0.37000107765197754,1.0,,,
SART,1,538.0,4.0,Go,0.31264257431030273,1.0,,,
SART,1,539.0,1.0,Go,0.30548810958862305,1.0,,,
SART,1,540.0,6.0,Go,0.3078022003173828,1.0,,,
SART,1,541.0,9.0,Go,0.31913042068481445,1.0,,,
SART,1,542.0,7.0,Go,0.3196907043457031,1.0,,,
SART,1,543.0,4.0,Go,0.2430126667022705,1.0,,,
SART,1,544.0,2.0,Go,0.27407288551330566,1.0,,,
SART,1,545.0,8.0,Go,0.27051877975463867,1.0,,,
SART,1,546.0,1.0,Go,0.3032076358795166,1.0,,,
SART,1,547.0,3.0,NoGo,0.28589582443237305,0.0,,,
SART,1,548.0,5.0,Go,0.31767868995666504,1.0,,,
SART,1,549.0,6.0,Go,0.3622612953186035,1.0,,,
SART,1,550.0,1.0,Go,0.3401358127593994,1.0,,,
SART,1,551.0,8.0,Go,0.30594968795776367,1.0,,,
SART,1,552.0,3.0,NoGo,0.3231160640716553,0.0,,,
SART,1,553.0,2.0,Go,0.3516683578491211,1.0,,,
SART,1,554.0,5.0,Go,0.44405198097229004,1.0,,,
SART,1,555.0,9.0,Go,0.43766045570373535,1.0,,,
SART,1,556.0,4.0,Go,0.39469075202941895,1.0,,,
SART,1,557.0,7.0,Go,0.4063417911529541,1.0,,,
SART,1,558.0,2.0,Go,0.4049801826477051,1.0,,,
SART,1,559.0,7.0,Go,0.5605542659759521,1.0,,,
SART,1,560.0,3.0,NoGo,,1.0,,,
SART,1,561.0,5.0,Go,0.36739683151245117,1.0,,,
SART,1,562.0,1.0,Go,0.27106380462646484,1.0,,,
SART,1,563.0,8.0,Go,0.351304292678833,1.0,,,
,1,,,,,,10.0,Focus,2.0
,1,,,,,,10.0,Looking,1.0
,1,,,,,,10.0,Awareness,3.0
,1,,,,,,10.0,Intentionality,3.0
,1,,,,,,10.0,Engaging_Thoughts,2.0
,1,,,,,,10.0,Perf_Rating,3.0
,1,,,,,,10.0,Vigilance,4.0
SART,1,564.0,4.0,Go,0.5591325759887695,1.0,,,
SART,1,565.0,6.0,Go,0.38814377784729004,1.0,,,
SART,1,566.0,9.0,Go,0.31489992141723633,1.0,,,
SART,1,567.0,7.0,Go,0.35340118408203125,1.0,,,
SART,1,568.0,5.0,Go,0.4535226821899414,1.0,,,
SART,1,569.0,2.0,Go,0.4624135494232178,1.0,,,
SART,1,570.0,3.0,NoGo,,1.0,,,
SART,1,571.0,6.0,Go,0.30499768257141113,1.0,,,
SART,1,572.0,1.0,Go,0.28092336654663086,1.0,,,
SART,1,573.0,8.0,Go,0.3745851516723633,1.0,,,
SART,1,574.0,4.0,Go,0.29269909858703613,1.0,,,
SART,1,575.0,9.0,Go,0.4152519702911377,1.0,,,
SART,1,576.0,8.0,Go,0.3575766086578369,1.0,,,
SART,1,577.0,4.0,Go,0.33316588401794434,1.0,,,
SART,1,578.0,7.0,Go,0.32565736770629883,1.0,,,
SART,1,579.0,2.0,Go,0.32518577575683594,1.0,,,
SART,1,580.0,3.0,NoGo,,1.0,,,
SART,1,581.0,5.0,Go,0.27225589752197266,1.0,,,
SART,1,582.0,9.0,Go,0.2850608825683594,1.0,,,
SART,1,583.0,6.0,Go,0.308300256729126,1.0,,,
SART,1,584.0,1.0,Go,0.4604477882385254,1.0,,,
SART,1,585.0,5.0,Go,0.3384826183319092,1.0,,,
SART,1,586.0,8.0,Go,0.35281944274902344,1.0,,,
SART,2,0.0,7.0,Go,0.5130219459533691,1.0,,,
SART,2,1.0,6.0,Go,0.32105278968811035,1.0,,,
SART,2,2.0,5.0,Go,0.27396368980407715,1.0,,,
SART,2,3.0,8.0,Go,0.3108093738555908,1.0,,,
SART,2,4.0,3.0,NoGo,0.3794975280761719,0.0,,,
SART,2,5.0,2.0,Go,0.17850494384765625,1.0,,,
SART,2,6.0,4.0,Go,0.2991921901702881,1.0,,,
SART,2,7.0,9.0,Go,0.30373597145080566,1.0,,,
SART,2,8.0,1.0,Go,0.31459474563598633,1.0,,,
SART,2,9.0,7.0,Go,0.26729750633239746,1.0,,,
SART,2,10.0,8.0,Go,0.30096888542175293,1.0,,,
SART,2,11.0,9.0,Go,0.2942366600036621,1.0,,,
SART,2,12.0,5.0,Go,0.28105854988098145,1.0,,,
SART,2,13.0,1.0,Go,0.30858612060546875,1.0,,,
SART,2,14.0,3.0,NoGo,0.28481531143188477,0.0,,,
SART,2,15.0,2.0,Go,0.2686126232147217,1.0,,,
SART,2,16.0,4.0,Go,0.26711463928222656,1.0,,,
SART,2,17.0,6.0,Go,0.17011213302612305,1.0,,,
SART,2,18.0,2.0,Go,0.03153276443481445,1.0,,,
SART,2,19.0,6.0,Go,0.028702974319458008,1.0,,,
SART,2,20.0,1.0,Go,0.29009461402893066,1.0,,,
SART,2,21.0,8.0,Go,0.2970595359802246,1.0,,,
SART,2,22.0,4.0,Go,0.49518322944641113,1.0,,,
SART,2,23.0,3.0,NoGo,0.3067758083343506,0.0,,,
SART,2,24.0,9.0,Go,0.32227206230163574,1.0,,,
SART,2,25.0,7.0,Go,0.29733800888061523,1.0,,,
SART,2,26.0,5.0,Go,0.3191702365875244,1.0,,,
SART,2,27.0,7.0,Go,0.3642916679382324,1.0,,,
SART,2,28.0,1.0,Go,0.5005354881286621,1.0,,,
SART,2,29.0,8.0,Go,0.4563407897949219,1.0,,,
SART,2,30.0,6.0,Go,0.31450343132019043,1.0,,,
SART,2,31.0,3.0,NoGo,0.3374028205871582,0.0,,,
SART,2,32.0,9.0,Go,0.45525026321411133,1.0,,,
SART,2,33.0,2.0,Go,0.42896175384521484,1.0,,,
SART,2,34.0,4.0,Go,0.5501608848571777,1.0,,,
SART,2,35.0,5.0,Go,0.297943115234375,1.0,,,
SART,2,36.0,8.0,Go,0.2929234504699707,1.0,,,
SART,2,37.0,2.0,Go,0.2700488567352295,1.0,,,
SART,2,38.0,6.0,Go,0.3399348258972168,1.0,,,
SART,2,39.0,5.0,Go,0.3720273971557617,1.0,,,
SART,2,40.0,9.0,Go,0.30861401557922363,1.0,,,
SART,2,41.0,3.0,NoGo,,1.0,,,
,2,,,,,,1.0,Focus,2.0
,2,,,,,,1.0,Looking,1.0
,2,,,,,,1.0,Awareness,1.0
,2,,,,,,1.0,Intentionality,1.0
,2,,,,,,1.0,Engaging_Thoughts,2.0
,2,,,,,,1.0,Perf_Rating,1.0
,2,,,,,,1.0,Vigilance,2.0
SART,2,42.0,7.0,Go,0.4992029666900635,1.0,,,
SART,2,43.0,4.0,Go,0.29757022857666016,1.0,,,
SART,2,44.0,1.0,Go,0.31720805168151855,1.0,,,
SART,2,45.0,4.0,Go,0.33176326751708984,1.0,,,
SART,2,46.0,2.0,Go,0.40853238105773926,1.0,,,
SART,2,47.0,6.0,Go,0.3257126808166504,1.0,,,
SART,2,48.0,9.0,Go,0.33089327812194824,1.0,,,
SART,2,49.0,7.0,Go,0.3197157382965088,1.0,,,
SART,2,50.0,5.0,Go,0.3012683391571045,1.0,,,
SART,2,51.0,8.0,Go,0.3105616569519043,1.0,,,
SART,2,52.0,3.0,NoGo,,1.0,,,
SART,2,53.0,1.0,Go,0.257457971572876,1.0,,,
SART,2,54.0,7.0,Go,0.018008708953857422,1.0,,,
SART,2,55.0,6.0,Go,0.23525762557983398,1.0,,,
SART,2,56.0,5.0,Go,0.2552471160888672,1.0,,,
SART,2,57.0,8.0,Go,0.4014105796813965,1.0,,,
SART,2,58.0,4.0,Go,0.3415672779083252,1.0,,,
SART,2,59.0,2.0,Go,0.43382740020751953,1.0,,,
SART,2,60.0,1.0,Go,0.3507068157196045,1.0,,,
SART,2,61.0,3.0,NoGo,,1.0,,,
SART,2,62.0,9.0,Go,0.34284424781799316,1.0,,,
SART,2,63.0,7.0,Go,0.34578585624694824,1.0,,,
SART,2,64.0,2.0,Go,0.3508896827697754,1.0,,,
SART,2,65.0,3.0,NoGo,,1.0,,,
SART,2,66.0,5.0,Go,0.26495790481567383,1.0,,,
SART,2,67.0,4.0,Go,0.2959773540496826,1.0,,,
SART,2,68.0,6.0,Go,0.34093189239501953,1.0,,,
SART,2,69.0,9.0,Go,0.28159475326538086,1.0,,,
SART,2,70.0,1.0,Go,0.274212121963501,1.0,,,
SART,2,71.0,8.0,Go,0.29888391494750977,1.0,,,
SART,2,72.0,9.0,Go,0.3492248058319092,1.0,,,
SART,2,73.0,4.0,Go,0.308910608291626,1.0,,,
SART,2,74.0,1.0,Go,0.3418765068054199,1.0,,,
SART,2,75.0,6.0,Go,0.2969794273376465,1.0,,,
SART,2,76.0,7.0,Go,0.37197232246398926,1.0,,,
SART,2,77.0,5.0,Go,0.3209555149078369,1.0,,,
SART,2,78.0,3.0,NoGo,0.2827749252319336,0.0,,,
SART,2,79.0,2.0,Go,0.01948094367980957,1.0,,,
SART,2,80.0,8.0,Go,0.38614821434020996,1.0,,,
SART,2,81.0,1.0,Go,0.3261594772338867,1.0,,,
SART,2,82.0,9.0,Go,0.455838680267334,1.0,,,
SART,2,83.0,3.0,NoGo,,1.0,,,
SART,2,84.0,6.0,Go,0.28877830505371094,1.0,,,
SART,2,85.0,2.0,Go,0.3805215358734131,1.0,,,
SART,2,86.0,8.0,Go,0.39151620864868164,1.0,,,
SART,2,87.0,7.0,Go,0.46073341369628906,1.0,,,
SART,2,88.0,4.0,Go,0.49363017082214355,1.0,,,
SART,2,89.0,5.0,Go,0.3678860664367676,1.0,,,
SART,2,90.0,2.0,Go,0.4885835647583008,1.0,,,
SART,2,91.0,6.0,Go,0.3966362476348877,1.0,,,
SART,2,92.0,1.0,Go,0.3793141841888428,1.0,,,
SART,2,93.0,9.0,Go,0.431715726852417,1.0,,,
SART,2,94.0,4.0,Go,0.41369009017944336,1.0,,,
SART,2,95.0,7.0,Go,0.3573312759399414,1.0,,,
SART,2,96.0,8.0,Go,0.3191416263580322,1.0,,,
SART,2,97.0,3.0,NoGo,,1.0,,,
SART,2,98.0,5.0,Go,0.275057315826416,1.0,,,
SART,2,99.0,6.0,Go,0.33158063888549805,1.0,,,
SART,2,100.0,1.0,Go,0.3757796287536621,1.0,,,
SART,2,101.0,9.0,Go,0.3162825107574463,1.0,,,
SART,2,102.0,8.0,Go,0.3796730041503906,1.0,,,
SART,2,103.0,7.0,Go,0.3467283248901367,1.0,,,
SART,2,104.0,5.0,Go,0.37517809867858887,1.0,,,
SART,2,105.0,4.0,Go,0.30863213539123535,1.0,,,
,2,,,,,,2.0,Focus,1.0
,2,,,,,,2.0,Looking,1.0
,2,,,,,,2.0,Awareness,2.0
,2,,,,,,2.0,Intentionality,2.0
,2,,,,,,2.0,Engaging_Thoughts,1.0
,2,,,,,,2.0,Perf_Rating,3.0
,2,,,,,,2.0,Vigilance,2.0
SART,2,106.0,2.0,Go,0.6755068302154541,1.0,,,
SART,2,107.0,3.0,NoGo,,1.0,,,
SART,2,108.0,8.0,Go,0.3231978416442871,1.0,,,
SART,2,109.0,1.0,Go,0.3306772708892822,1.0,,,
SART,2,110.0,3.0,NoGo,0.29349303245544434,0.0,,,
SART,2,111.0,5.0,Go,0.5981183052062988,1.0,,,
SART,2,112.0,2.0,Go,0.4764597415924072,1.0,,,
SART,2,113.0,4.0,Go,0.5917189121246338,1.0,,,
SART,2,114.0,7.0,Go,0.3609604835510254,1.0,,,
SART,2,115.0,9.0,Go,0.36205267906188965,1.0,,,
SART,2,116.0,6.0,Go,0.3126401901245117,1.0,,,
SART,2,117.0,3.0,NoGo,,1.0,,,
SART,2,118.0,8.0,Go,0.3218567371368408,1.0,,,
SART,2,119.0,7.0,Go,0.3151392936706543,1.0,,,
SART,2,120.0,9.0,Go,0.2537722587585449,1.0,,,
SART,2,121.0,1.0,Go,0.312821626663208,1.0,,,
SART,2,122.0,6.0,Go,0.31501340866088867,1.0,,,
SART,2,123.0,4.0,Go,0.32888293266296387,1.0,,,
SART,2,124.0,2.0,Go,0.4855217933654785,1.0,,,
SART,2,125.0,5.0,Go,0.33846187591552734,1.0,,,
SART,2,126.0,8.0,Go,0.32854795455932617,1.0,,,
SART,2,127.0,5.0,Go,0.3457295894622803,1.0,,,
SART,2,128.0,1.0,Go,0.33136820793151855,1.0,,,
SART,2,129.0,2.0,Go,0.2958548069000244,1.0,,,
SART,2,130.0,3.0,NoGo,0.3722567558288574,0.0,,,
SART,2,131.0,4.0,Go,0.5735464096069336,1.0,,,
SART,2,132.0,9.0,Go,0.33393383026123047,1.0,,,
SART,2,133.0,6.0,Go,0.2546706199645996,1.0,,,
SART,2,134.0,7.0,Go,0.2683274745941162,1.0,,,
SART,2,135.0,6.0,Go,0.28518128395080566,1.0,,,
SART,2,136.0,5.0,Go,0.3631722927093506,1.0,,,
SART,2,137.0,1.0,Go,0.47838759422302246,1.0,,,
SART,2,138.0,4.0,Go,0.49498677253723145,1.0,,,
SART,2,139.0,2.0,Go,0.33292055130004883,1.0,,,
SART,2,140.0,9.0,Go,0.3397812843322754,1.0,,,
SART,2,141.0,7.0,Go,0.32522010803222656,1.0,,,
SART,2,142.0,3.0,NoGo,,1.0,,,
SART,2,143.0,8.0,Go,0.22690892219543457,1.0,,,
SART,2,144.0,6.0,Go,0.41207075119018555,1.0,,,
SART,2,145.0,7.0,Go,0.43721485137939453,1.0,,,
SART,2,146.0,2.0,Go,0.36707615852355957,1.0,,,
SART,2,147.0,1.0,Go,0.4002342224121094,1.0,,,
SART,2,148.0,9.0,Go,0.4658236503601074,1.0,,,
SART,2,149.0,8.0,Go,0.36594676971435547,1.0,,,
SART,2,150.0,4.0,Go,0.40839052200317383,1.0,,,
SART,2,151.0,3.0,NoGo,1.1005611419677734,0.0,,,
SART,2,152.0,5.0,Go,0.6790239810943604,1.0,,,
SART,2,153.0,2.0,Go,0.2639191150665283,1.0,,,
SART,2,154.0,4.0,Go,0.2731208801269531,1.0,,,
SART,2,155.0,5.0,Go,0.5406017303466797,1.0,,,
SART,2,156.0,6.0,Go,0.32936906814575195,1.0,,,
SART,2,157.0,7.0,Go,0.3466010093688965,1.0,,,
SART,2,158.0,3.0,NoGo,0.3191089630126953,0.0,,,
SART,2,159.0,9.0,Go,0.5218014717102051,1.0,,,
SART,2,160.0,8.0,Go,0.28446173667907715,1.0,,,
SART,2,161.0,1.0,Go,0.4236030578613281,1.0,,,
,2,,,,,,3.0,Focus,2.0
,2,,,,,,3.0,Looking,1.0
,2,,,,,,3.0,Awareness,3.0
,2,,,,,,3.0,Intentionality,3.0
,2,,,,,,3.0,Engaging_Thoughts,3.0
,2,,,,,,3.0,Perf_Rating,1.0
,2,,,,,,3.0,Vigilance,2.0
SART,2,162.0,4.0,Go,0.5383400917053223,1.0,,,
SART,2,163.0,8.0,Go,0.3072078227996826,1.0,,,
SART,2,164.0,5.0,Go,0.3717539310455322,1.0,,,
SART,2,165.0,7.0,Go,0.37038302421569824,1.0,,,
SART,2,166.0,9.0,Go,0.3963959217071533,1.0,,,
SART,2,167.0,2.0,Go,0.4007139205932617,1.0,,,
SART,2,168.0,3.0,NoGo,,1.0,,,
SART,2,169.0,1.0,Go,0.4789414405822754,1.0,,,
SART,2,170.0,6.0,Go,0.5016200542449951,1.0,,,
SART,2,171.0,7.0,Go,0.3067288398742676,1.0,,,
SART,2,172.0,6.0,Go,0.29097604751586914,1.0,,,
SART,2,173.0,5.0,Go,0.36975812911987305,1.0,,,
SART,2,174.0,4.0,Go,0.36261534690856934,1.0,,,
SART,2,175.0,9.0,Go,0.35425758361816406,1.0,,,
SART,2,176.0,8.0,Go,0.35706186294555664,1.0,,,
SART,2,177.0,3.0,NoGo,,1.0,,,
SART,2,178.0,2.0,Go,0.297330379486084,1.0,,,
SART,2,179.0,1.0,Go,0.3255329132080078,1.0,,,
SART,2,180.0,4.0,Go,0.5311174392700195,1.0,,,
SART,2,181.0,6.0,Go,0.4149134159088135,1.0,,,
SART,2,182.0,5.0,Go,0.27683424949645996,1.0,,,
SART,2,183.0,7.0,Go,0.2742769718170166,1.0,,,
SART,2,184.0,1.0,Go,0.3426673412322998,1.0,,,
SART,2,185.0,9.0,Go,0.2824106216430664,1.0,,,
SART,2,186.0,2.0,Go,0.3136179447174072,1.0,,,
SART,2,187.0,8.0,Go,0.347531795501709,1.0,,,
SART,2,188.0,3.0,NoGo,0.33010149002075195,0.0,,,
SART,2,189.0,5.0,Go,0.2849612236022949,1.0,,,
SART,2,190.0,3.0,NoGo,0.3038914203643799,0.0,,,
SART,2,191.0,7.0,Go,0.27690696716308594,1.0,,,
SART,2,192.0,2.0,Go,0.24056386947631836,1.0,,,
SART,2,193.0,8.0,Go,0.32415342330932617,1.0,,,
SART,2,194.0,9.0,Go,0.24536347389221191,1.0,,,
SART,2,195.0,4.0,Go,0.29143381118774414,1.0,,,
SART,2,196.0,6.0,Go,0.31366395950317383,1.0,,,
SART,2,197.0,1.0,Go,0.3395881652832031,1.0,,,
SART,2,198.0,9.0,Go,0.3466169834136963,1.0,,,
SART,2,199.0,1.0,Go,0.2865607738494873,1.0,,,
SART,2,200.0,8.0,Go,0.3027033805847168,1.0,,,
SART,2,201.0,4.0,Go,0.33551812171936035,1.0,,,
SART,2,202.0,7.0,Go,0.28731751441955566,1.0,,,
SART,2,203.0,3.0,NoGo,,1.0,,,
SART,2,204.0,6.0,Go,0.2651529312133789,1.0,,,
SART,2,205.0,2.0,Go,0.25324177742004395,1.0,,,
SART,2,206.0,5.0,Go,0.10633683204650879,1.0,,,
SART,2,207.0,8.0,Go,0.3685731887817383,1.0,,,
SART,2,208.0,3.0,NoGo,,1.0,,,
SART,2,209.0,6.0,Go,0.26497840881347656,1.0,,,
SART,2,210.0,2.0,Go,0.29776835441589355,1.0,,,
SART,2,211.0,1.0,Go,0.32695531845092773,1.0,,,
SART,2,212.0,9.0,Go,0.4680938720703125,1.0,,,
SART,2,213.0,4.0,Go,0.344146728515625,1.0,,,
SART,2,214.0,7.0,Go,0.29163241386413574,1.0,,,
SART,2,215.0,5.0,Go,0.35128355026245117,1.0,,,
SART,2,216.0,7.0,Go,0.3029141426086426,1.0,,,
SART,2,217.0,2.0,Go,0.32969188690185547,1.0,,,
SART,2,218.0,6.0,Go,0.34223031997680664,1.0,,,
SART,2,219.0,8.0,Go,0.2866239547729492,1.0,,,
SART,2,220.0,5.0,Go,0.38642358779907227,1.0,,,
SART,2,221.0,4.0,Go,0.33002471923828125,1.0,,,
SART,2,222.0,1.0,Go,0.34072256088256836,1.0,,,
SART,2,223.0,9.0,Go,0.29041290283203125,1.0,,,
SART,2,224.0,3.0,NoGo,,1.0,,,
SART,2,225.0,8.0,Go,0.2745397090911865,1.0,,,
,2,,,,,,4.0,Focus,2.0
,2,,,,,,4.0,Looking,1.0
,2,,,,,,4.0,Awareness,3.0
,2,,,,,,4.0,Intentionality,3.0
,2,,,,,,4.0,Engaging_Thoughts,2.0
,2,,,,,,4.0,Perf_Rating,1.0
,2,,,,,,4.0,Vigilance,1.0
SART,2,226.0,4.0,Go,0.6344716548919678,1.0,,,
SART,2,227.0,6.0,Go,0.46152758598327637,1.0,,,
SART,2,228.0,5.0,Go,0.4161064624786377,1.0,,,
SART,2,229.0,2.0,Go,0.4523768424987793,1.0,,,
SART,2,230.0,7.0,Go,0.4084804058074951,1.0,,,
SART,2,231.0,3.0,NoGo,,1.0,,,
SART,2,232.0,9.0,Go,0.28871989250183105,1.0,,,
SART,2,233.0,1.0,Go,0.25504112243652344,1.0,,,
SART,2,234.0,5.0,Go,0.26638317108154297,1.0,,,
SART,2,235.0,8.0,Go,0.3242208957672119,1.0,,,
SART,2,236.0,2.0,Go,0.3610975742340088,1.0,,,
SART,2,237.0,4.0,Go,0.28781557083129883,1.0,,,
SART,2,238.0,1.0,Go,0.3003501892089844,1.0,,,
SART,2,239.0,6.0,Go,0.36098766326904297,1.0,,,
SART,2,240.0,7.0,Go,0.3658115863800049,1.0,,,
SART,2,241.0,3.0,NoGo,0.3221714496612549,0.0,,,
SART,2,242.0,9.0,Go,0.04259443283081055,1.0,,,
SART,2,243.0,7.0,Go,0.43903493881225586,1.0,,,
SART,2,244.0,9.0,Go,0.5410709381103516,1.0,,,
SART,2,245.0,3.0,NoGo,,1.0,,,
SART,2,246.0,5.0,Go,0.42563915252685547,1.0,,,
SART,2,247.0,2.0,Go,0.331653356552124,1.0,,,
SART,2,248.0,6.0,Go,0.37945985794067383,1.0,,,
SART,2,249.0,1.0,Go,0.3709290027618408,1.0,,,
SART,2,250.0,4.0,Go,0.26992297172546387,1.0,,,
SART,2,251.0,8.0,Go,0.39702558517456055,1.0,,,
SART,2,252.0,4.0,Go,0.375288724899292,1.0,,,
SART,2,253.0,7.0,Go,0.3895542621612549,1.0,,,
SART,2,254.0,9.0,Go,0.37807130813598633,1.0,,,
SART,2,255.0,5.0,Go,0.3900306224822998,1.0,,,
SART,2,256.0,2.0,Go,0.3161427974700928,1.0,,,
SART,2,257.0,3.0,NoGo,0.31418418884277344,0.0,,,
SART,2,258.0,1.0,Go,0.2338428497314453,1.0,,,
SART,2,259.0,6.0,Go,0.2626469135284424,1.0,,,
SART,2,260.0,8.0,Go,0.26012420654296875,1.0,,,
SART,2,261.0,1.0,Go,0.2630269527435303,1.0,,,
SART,2,262.0,5.0,Go,0.2844114303588867,1.0,,,
SART,2,263.0,3.0,NoGo,0.3196375370025635,0.0,,,
SART,2,264.0,4.0,Go,0.3523745536804199,1.0,,,
SART,2,265.0,9.0,Go,0.3159337043762207,1.0,,,
SART,2,266.0,7.0,Go,0.3550529479980469,1.0,,,
SART,2,267.0,2.0,Go,0.31769895553588867,1.0,,,
SART,2,268.0,8.0,Go,0.35732460021972656,1.0,,,
SART,2,269.0,6.0,Go,0.3442049026489258,1.0,,,
SART,2,270.0,4.0,Go,0.3909468650817871,1.0,,,
SART,2,271.0,9.0,Go,0.3789398670196533,1.0,,,
,2,,,,,,5.0,Focus,2.0
,2,,,,,,5.0,Looking,1.0
,2,,,,,,5.0,Awareness,2.0
,2,,,,,,5.0,Intentionality,3.0
,2,,,,,,5.0,Engaging_Thoughts,2.0
,2,,,,,,5.0,Perf_Rating,1.0
,2,,,,,,5.0,Vigilance,2.0
SART,2,272.0,1.0,Go,0.7259275913238525,1.0,,,
SART,2,273.0,6.0,Go,0.724818229675293,1.0,,,
SART,2,274.0,8.0,Go,0.44641542434692383,1.0,,,
SART,2,275.0,2.0,Go,0.3192262649536133,1.0,,,
SART,2,276.0,3.0,NoGo,,1.0,,,
SART,2,277.0,7.0,Go,0.3085174560546875,1.0,,,
SART,2,278.0,5.0,Go,0.34388113021850586,1.0,,,
SART,2,279.0,1.0,Go,0.36103343963623047,1.0,,,
SART,2,280.0,5.0,Go,0.37073588371276855,1.0,,,
SART,2,281.0,4.0,Go,0.3418102264404297,1.0,,,
SART,2,282.0,2.0,Go,0.3376481533050537,1.0,,,
SART,2,283.0,8.0,Go,0.3751871585845947,1.0,,,
SART,2,284.0,3.0,NoGo,,1.0,,,
SART,2,285.0,7.0,Go,0.2667410373687744,1.0,,,
SART,2,286.0,6.0,Go,0.36436033248901367,1.0,,,
SART,2,287.0,9.0,Go,0.37212133407592773,1.0,,,
SART,2,288.0,6.0,Go,0.37940287590026855,1.0,,,
SART,2,289.0,1.0,Go,0.4622230529785156,1.0,,,
SART,2,290.0,3.0,NoGo,,1.0,,,
SART,2,291.0,5.0,Go,0.3097856044769287,1.0,,,
SART,2,292.0,8.0,Go,0.29306864738464355,1.0,,,
SART,2,293.0,2.0,Go,0.3676297664642334,1.0,,,
SART,2,294.0,4.0,Go,0.3992629051208496,1.0,,,
SART,2,295.0,7.0,Go,0.34761714935302734,1.0,,,
SART,2,296.0,9.0,Go,0.3781275749206543,1.0,,,
SART,2,297.0,6.0,Go,0.5410895347595215,1.0,,,
SART,2,298.0,3.0,NoGo,,1.0,,,
SART,2,299.0,9.0,Go,0.2415144443511963,1.0,,,
SART,2,300.0,5.0,Go,0.3212606906890869,1.0,,,
SART,2,301.0,1.0,Go,0.2929496765136719,1.0,,,
SART,2,302.0,2.0,Go,0.3156311511993408,1.0,,,
SART,2,303.0,7.0,Go,0.3990929126739502,1.0,,,
SART,2,304.0,8.0,Go,0.3494582176208496,1.0,,,
SART,2,305.0,4.0,Go,0.36246705055236816,1.0,,,
SART,2,306.0,1.0,Go,0.35761117935180664,1.0,,,
SART,2,307.0,9.0,Go,0.33992910385131836,1.0,,,
SART,2,308.0,7.0,Go,0.30330324172973633,1.0,,,
SART,2,309.0,8.0,Go,0.3111867904663086,1.0,,,
SART,2,310.0,2.0,Go,0.33252978324890137,1.0,,,
SART,2,311.0,3.0,NoGo,0.31867289543151855,0.0,,,
SART,2,312.0,6.0,Go,0.3744697570800781,1.0,,,
SART,2,313.0,4.0,Go,0.39339232444763184,1.0,,,
SART,2,314.0,5.0,Go,0.27722764015197754,1.0,,,
SART,2,315.0,8.0,Go,0.3468055725097656,1.0,,,
SART,2,316.0,6.0,Go,0.36591577529907227,1.0,,,
SART,2,317.0,5.0,Go,0.3865373134613037,1.0,,,
SART,2,318.0,3.0,NoGo,,1.0,,,
SART,2,319.0,2.0,Go,0.29779887199401855,1.0,,,
SART,2,320.0,1.0,Go,0.31708812713623047,1.0,,,
SART,2,321.0,7.0,Go,0.35590600967407227,1.0,,,
SART,2,322.0,9.0,Go,0.3468437194824219,1.0,,,
SART,2,323.0,4.0,Go,0.31377172470092773,1.0,,,
SART,2,324.0,2.0,Go,0.35353755950927734,1.0,,,
SART,2,325.0,1.0,Go,0.3798403739929199,1.0,,,
SART,2,326.0,3.0,NoGo,0.32457876205444336,0.0,,,
SART,2,327.0,5.0,Go,0.020474672317504883,1.0,,,
SART,2,328.0,8.0,Go,0.26337289810180664,1.0,,,
,2,,,,,,6.0,Focus,2.0
,2,,,,,,6.0,Looking,1.0
,2,,,,,,6.0,Awareness,3.0
,2,,,,,,6.0,Intentionality,4.0
,2,,,,,,6.0,Engaging_Thoughts,2.0
,2,,,,,,6.0,Perf_Rating,2.0
,2,,,,,,6.0,Vigilance,1.0
SART,2,329.0,6.0,Go,0.5884132385253906,1.0,,,
SART,2,330.0,7.0,Go,0.3211202621459961,1.0,,,
SART,2,331.0,9.0,Go,0.3078920841217041,1.0,,,
SART,2,332.0,4.0,Go,0.35320019721984863,1.0,,,
SART,2,333.0,8.0,Go,0.33860206604003906,1.0,,,
SART,2,334.0,2.0,Go,0.33148670196533203,1.0,,,
SART,2,335.0,3.0,NoGo,,1.0,,,
SART,2,336.0,4.0,Go,0.36908435821533203,1.0,,,
SART,2,337.0,7.0,Go,0.2906315326690674,1.0,,,
SART,2,338.0,5.0,Go,0.2744438648223877,1.0,,,
SART,2,339.0,1.0,Go,0.2878694534301758,1.0,,,
SART,2,340.0,9.0,Go,0.3445773124694824,1.0,,,
SART,2,341.0,6.0,Go,0.27628493309020996,1.0,,,
SART,2,342.0,3.0,NoGo,0.36288881301879883,0.0,,,
SART,2,343.0,6.0,Go,0.2304549217224121,1.0,,,
SART,2,344.0,9.0,Go,0.36321043968200684,1.0,,,
SART,2,345.0,7.0,Go,0.32779622077941895,1.0,,,
SART,2,346.0,8.0,Go,0.32397937774658203,1.0,,,
SART,2,347.0,2.0,Go,0.3556523323059082,1.0,,,
SART,2,348.0,1.0,Go,0.37311530113220215,1.0,,,
SART,2,349.0,5.0,Go,0.4135468006134033,1.0,,,
SART,2,350.0,4.0,Go,0.4544546604156494,1.0,,,
SART,2,351.0,7.0,Go,0.4190254211425781,1.0,,,
SART,2,352.0,1.0,Go,0.3739786148071289,1.0,,,
SART,2,353.0,8.0,Go,0.3790464401245117,1.0,,,
SART,2,354.0,4.0,Go,0.36392760276794434,1.0,,,
SART,2,355.0,2.0,Go,0.3002026081085205,1.0,,,
SART,2,356.0,5.0,Go,0.40578269958496094,1.0,,,
SART,2,357.0,3.0,NoGo,,1.0,,,
SART,2,358.0,6.0,Go,0.23501038551330566,1.0,,,
SART,2,359.0,9.0,Go,0.26940059661865234,1.0,,,
SART,2,360.0,1.0,Go,0.32797670364379883,1.0,,,
SART,2,361.0,5.0,Go,0.4134359359741211,1.0,,,
SART,2,362.0,7.0,Go,0.3359260559082031,1.0,,,
SART,2,363.0,6.0,Go,0.3600928783416748,1.0,,,
SART,2,364.0,9.0,Go,0.3986055850982666,1.0,,,
SART,2,365.0,3.0,NoGo,,1.0,,,
SART,2,366.0,8.0,Go,0.2875392436981201,1.0,,,
SART,2,367.0,4.0,Go,0.25095605850219727,1.0,,,
SART,2,368.0,2.0,Go,0.039821624755859375,1.0,,,
SART,2,369.0,9.0,Go,0.3297390937805176,1.0,,,
SART,2,370.0,2.0,Go,0.3302183151245117,1.0,,,
SART,2,371.0,8.0,Go,0.32092881202697754,1.0,,,
SART,2,372.0,6.0,Go,0.33090662956237793,1.0,,,
SART,2,373.0,4.0,Go,0.306110143661499,1.0,,,
SART,2,374.0,5.0,Go,0.35026073455810547,1.0,,,
SART,2,375.0,3.0,NoGo,0.3545966148376465,0.0,,,
SART,2,376.0,1.0,Go,0.21560883522033691,1.0,,,
SART,2,377.0,7.0,Go,0.30596399307250977,1.0,,,
SART,2,378.0,2.0,Go,0.3286902904510498,1.0,,,
SART,2,379.0,3.0,NoGo,1.1695873737335205,0.0,,,
SART,2,380.0,8.0,Go,0.7708687782287598,1.0,,,
SART,2,381.0,5.0,Go,0.39053797721862793,1.0,,,
,2,,,,,,7.0,Focus,2.0
,2,,,,,,7.0,Looking,1.0
,2,,,,,,7.0,Awareness,3.0
,2,,,,,,7.0,Intentionality,3.0
,2,,,,,,7.0,Engaging_Thoughts,2.0
,2,,,,,,7.0,Perf_Rating,2.0
,2,,,,,,7.0,Vigilance,1.0
SART,2,382.0,9.0,Go,0.4858384132385254,1.0,,,
SART,2,383.0,4.0,Go,0.3487367630004883,1.0,,,
SART,2,384.0,6.0,Go,0.3847074508666992,1.0,,,
SART,2,385.0,7.0,Go,0.3235199451446533,1.0,,,
SART,2,386.0,1.0,Go,0.31535792350769043,1.0,,,
SART,2,387.0,7.0,Go,0.31139111518859863,1.0,,,
SART,2,388.0,9.0,Go,0.3703458309173584,1.0,,,
SART,2,389.0,3.0,NoGo,,1.0,,,
SART,2,390.0,6.0,Go,0.3219451904296875,1.0,,,
SART,2,391.0,4.0,Go,0.3901383876800537,1.0,,,
SART,2,392.0,8.0,Go,0.32679295539855957,1.0,,,
SART,2,393.0,5.0,Go,0.3068547248840332,1.0,,,
SART,2,394.0,1.0,Go,0.322080135345459,1.0,,,
SART,2,395.0,2.0,Go,0.43204402923583984,1.0,,,
SART,2,396.0,3.0,NoGo,,1.0,,,
SART,2,397.0,2.0,Go,0.3418874740600586,1.0,,,
SART,2,398.0,7.0,Go,0.44192934036254883,1.0,,,
SART,2,399.0,4.0,Go,0.3044919967651367,1.0,,,
SART,2,400.0,1.0,Go,0.46213674545288086,1.0,,,
SART,2,401.0,6.0,Go,0.38551807403564453,1.0,,,
SART,2,402.0,8.0,Go,0.3520321846008301,1.0,,,
SART,2,403.0,5.0,Go,0.5237748622894287,1.0,,,
SART,2,404.0,9.0,Go,0.48884081840515137,1.0,,,
SART,2,405.0,1.0,Go,0.5568716526031494,1.0,,,
SART,2,406.0,9.0,Go,0.38466620445251465,1.0,,,
SART,2,407.0,6.0,Go,0.33121585845947266,1.0,,,
SART,2,408.0,5.0,Go,0.4311389923095703,1.0,,,
SART,2,409.0,3.0,NoGo,,1.0,,,
SART,2,410.0,7.0,Go,0.3326292037963867,1.0,,,
SART,2,411.0,8.0,Go,0.38289785385131836,1.0,,,
SART,2,412.0,4.0,Go,0.35984325408935547,1.0,,,
SART,2,413.0,2.0,Go,0.4649062156677246,1.0,,,
SART,2,414.0,7.0,Go,0.37274956703186035,1.0,,,
SART,2,415.0,6.0,Go,0.41303086280822754,1.0,,,
SART,2,416.0,1.0,Go,0.4097719192504883,1.0,,,
SART,2,417.0,9.0,Go,0.380889892578125,1.0,,,
SART,2,418.0,4.0,Go,0.3624074459075928,1.0,,,
SART,2,419.0,2.0,Go,0.4350268840789795,1.0,,,
SART,2,420.0,5.0,Go,0.5954329967498779,1.0,,,
SART,2,421.0,3.0,NoGo,,1.0,,,
SART,2,422.0,8.0,Go,0.3111238479614258,1.0,,,
SART,2,423.0,5.0,Go,0.42635488510131836,1.0,,,
SART,2,424.0,8.0,Go,0.49956226348876953,1.0,,,
SART,2,425.0,1.0,Go,0.7422490119934082,1.0,,,
SART,2,426.0,3.0,NoGo,,1.0,,,
SART,2,427.0,4.0,Go,0.3573760986328125,1.0,,,
SART,2,428.0,9.0,Go,0.38265514373779297,1.0,,,
SART,2,429.0,2.0,Go,0.3675389289855957,1.0,,,
SART,2,430.0,7.0,Go,0.35564160346984863,1.0,,,
SART,2,431.0,6.0,Go,0.33182215690612793,1.0,,,
SART,2,432.0,3.0,NoGo,,1.0,,,
SART,2,433.0,8.0,Go,0.2991602420806885,1.0,,,
SART,2,434.0,7.0,Go,0.39577555656433105,1.0,,,
SART,2,435.0,5.0,Go,0.38495373725891113,1.0,,,
SART,2,436.0,4.0,Go,0.37479543685913086,1.0,,,
,2,,,,,,8.0,Focus,1.0
,2,,,,,,8.0,Looking,1.0
,2,,,,,,8.0,Awareness,1.0
,2,,,,,,8.0,Intentionality,1.0
,2,,,,,,8.0,Engaging_Thoughts,1.0
,2,,,,,,8.0,Perf_Rating,4.0
,2,,,,,,8.0,Vigilance,4.0
SART,2,437.0,1.0,Go,0.48308539390563965,1.0,,,
SART,2,438.0,9.0,Go,0.3093140125274658,1.0,,,
SART,2,439.0,6.0,Go,0.35821032524108887,1.0,,,
SART,2,440.0,2.0,Go,0.36773061752319336,1.0,,,
SART,2,441.0,5.0,Go,0.4410409927368164,1.0,,,
SART,2,442.0,9.0,Go,0.3749699592590332,1.0,,,
SART,2,443.0,7.0,Go,0.42737603187561035,1.0,,,
SART,2,444.0,2.0,Go,0.40076732635498047,1.0,,,
SART,2,445.0,8.0,Go,0.3861536979675293,1.0,,,
SART,2,446.0,1.0,Go,0.46504878997802734,1.0,,,
SART,2,447.0,6.0,Go,0.5640087127685547,1.0,,,
SART,2,448.0,4.0,Go,0.5686342716217041,1.0,,,
SART,2,449.0,3.0,NoGo,,1.0,,,
SART,2,450.0,4.0,Go,0.28970766067504883,1.0,,,
SART,2,451.0,2.0,Go,0.3463761806488037,1.0,,,
SART,2,452.0,8.0,Go,0.35854053497314453,1.0,,,
SART,2,453.0,3.0,NoGo,,1.0,,,
SART,2,454.0,1.0,Go,0.3110806941986084,1.0,,,
SART,2,455.0,9.0,Go,0.319075345993042,1.0,,,
SART,2,456.0,5.0,Go,0.41510462760925293,1.0,,,
SART,2,457.0,6.0,Go,0.33962059020996094,1.0,,,
SART,2,458.0,7.0,Go,0.45789241790771484,1.0,,,
SART,2,459.0,5.0,Go,0.4439122676849365,1.0,,,
SART,2,460.0,8.0,Go,0.5360167026519775,1.0,,,
SART,2,461.0,6.0,Go,0.41962265968322754,1.0,,,
SART,2,462.0,3.0,NoGo,,1.0,,,
SART,2,463.0,2.0,Go,0.3059115409851074,1.0,,,
SART,2,464.0,7.0,Go,0.8082554340362549,1.0,,,
SART,2,465.0,4.0,Go,0.5318648815155029,1.0,,,
SART,2,466.0,1.0,Go,0.3196887969970703,1.0,,,
SART,2,467.0,9.0,Go,0.28909826278686523,1.0,,,
SART,2,468.0,6.0,Go,0.3171555995941162,1.0,,,
SART,2,469.0,7.0,Go,0.3873476982116699,1.0,,,
SART,2,470.0,1.0,Go,0.3695640563964844,1.0,,,
SART,2,471.0,9.0,Go,0.3795175552368164,1.0,,,
SART,2,472.0,5.0,Go,0.36636996269226074,1.0,,,
SART,2,473.0,3.0,NoGo,,1.0,,,
SART,2,474.0,8.0,Go,0.5182271003723145,1.0,,,
SART,2,475.0,4.0,Go,0.48132872581481934,1.0,,,
SART,2,476.0,2.0,Go,0.4578113555908203,1.0,,,
SART,2,477.0,4.0,Go,0.7092981338500977,1.0,,,
SART,2,478.0,3.0,NoGo,0.38782453536987305,0.0,,,
SART,2,479.0,2.0,Go,0.27437663078308105,1.0,,,
SART,2,480.0,1.0,Go,0.3528897762298584,1.0,,,
SART,2,481.0,9.0,Go,0.37530517578125,1.0,,,
SART,2,482.0,6.0,Go,0.36869072914123535,1.0,,,
SART,2,483.0,7.0,Go,0.32253265380859375,1.0,,,
SART,2,484.0,8.0,Go,0.3553028106689453,1.0,,,
SART,2,485.0,5.0,Go,0.42986059188842773,1.0,,,
SART,2,486.0,9.0,Go,0.5720446109771729,1.0,,,
SART,2,487.0,5.0,Go,0.3570089340209961,1.0,,,
SART,2,488.0,6.0,Go,0.33565521240234375,1.0,,,
SART,2,489.0,4.0,Go,0.36774659156799316,1.0,,,
SART,2,490.0,1.0,Go,0.37397170066833496,1.0,,,
SART,2,491.0,3.0,NoGo,,1.0,,,
SART,2,492.0,2.0,Go,0.34206247329711914,1.0,,,
,2,,,,,,9.0,Focus,1.0
,2,,,,,,9.0,Looking,1.0
,2,,,,,,9.0,Awareness,1.0
,2,,,,,,9.0,Intentionality,1.0
,2,,,,,,9.0,Engaging_Thoughts,1.0
,2,,,,,,9.0,Perf_Rating,4.0
,2,,,,,,9.0,Vigilance,1.0
SART,2,493.0,7.0,Go,0.5143859386444092,1.0,,,
SART,2,494.0,8.0,Go,0.32847118377685547,1.0,,,
SART,2,495.0,1.0,Go,0.34822654724121094,1.0,,,
SART,2,496.0,3.0,NoGo,,1.0,,,
SART,2,497.0,2.0,Go,0.31673312187194824,1.0,,,
SART,2,498.0,5.0,Go,0.37903738021850586,1.0,,,
SART,2,499.0,9.0,Go,0.38964033126831055,1.0,,,
SART,2,500.0,8.0,Go,0.6027910709381104,1.0,,,
SART,2,501.0,7.0,Go,0.3386552333831787,1.0,,,
SART,2,502.0,4.0,Go,0.31891846656799316,1.0,,,
SART,2,503.0,6.0,Go,0.49686479568481445,1.0,,,
SART,2,504.0,8.0,Go,0.4412655830383301,1.0,,,
SART,2,505.0,7.0,Go,,0.0,,,
SART,2,506.0,3.0,NoGo,0.07502126693725586,0.0,,,
SART,2,507.0,4.0,Go,0.3328685760498047,1.0,,,
SART,2,508.0,9.0,Go,0.3134806156158447,1.0,,,
SART,2,509.0,2.0,Go,0.29773473739624023,1.0,,,
SART,2,510.0,5.0,Go,0.3193995952606201,1.0,,,
SART,2,511.0,6.0,Go,0.3309609889984131,1.0,,,
SART,2,512.0,1.0,Go,0.3015282154083252,1.0,,,
SART,2,513.0,8.0,Go,0.3142380714416504,1.0,,,
SART,2,514.0,5.0,Go,0.2995312213897705,1.0,,,
SART,2,515.0,9.0,Go,0.48946475982666016,1.0,,,
SART,2,516.0,3.0,NoGo,,1.0,,,
SART,2,517.0,6.0,Go,0.27287888526916504,1.0,,,
SART,2,518.0,4.0,Go,0.28923773765563965,1.0,,,
SART,2,519.0,1.0,Go,0.31802988052368164,1.0,,,
SART,2,520.0,7.0,Go,0.3544180393218994,1.0,,,
SART,2,521.0,2.0,Go,0.2886953353881836,1.0,,,
SART,2,522.0,9.0,Go,0.4527561664581299,1.0,,,
SART,2,523.0,8.0,Go,0.3375241756439209,1.0,,,
SART,2,524.0,6.0,Go,0.3512742519378662,1.0,,,
SART,2,525.0,4.0,Go,0.3213460445404053,1.0,,,
SART,2,526.0,2.0,Go,0.28350067138671875,1.0,,,
SART,2,527.0,3.0,NoGo,,1.0,,,
SART,2,528.0,5.0,Go,0.27708983421325684,1.0,,,
SART,2,529.0,1.0,Go,0.294569730758667,1.0,,,
SART,2,530.0,7.0,Go,0.32767796516418457,1.0,,,
SART,2,531.0,4.0,Go,0.28639888763427734,1.0,,,
SART,2,532.0,9.0,Go,0.4446992874145508,1.0,,,
SART,2,533.0,2.0,Go,0.3050830364227295,1.0,,,
SART,2,534.0,6.0,Go,0.4178500175476074,1.0,,,
SART,2,535.0,8.0,Go,0.39318156242370605,1.0,,,
SART,2,536.0,1.0,Go,0.3745763301849365,1.0,,,
SART,2,537.0,7.0,Go,0.43044209480285645,1.0,,,
SART,2,538.0,3.0,NoGo,,1.0,,,
SART,2,539.0,5.0,Go,0.2976546287536621,1.0,,,
SART,2,540.0,8.0,Go,0.27135658264160156,1.0,,,
SART,2,541.0,6.0,Go,0.27367210388183594,1.0,,,
SART,2,542.0,4.0,Go,0.28362178802490234,1.0,,,
,2,,,,,,10.0,Focus,1.0
,2,,,,,,10.0,Looking,1.0
,2,,,,,,10.0,Awareness,1.0
,2,,,,,,10.0,Intentionality,1.0
,2,,,,,,10.0,Engaging_Thoughts,1.0
,2,,,,,,10.0,Perf_Rating,4.0
,2,,,,,,10.0,Vigilance,4.0
SART,2,543.0,5.0,Go,0.5324094295501709,1.0,,,
SART,2,544.0,9.0,Go,0.25905489921569824,1.0,,,
SART,2,545.0,3.0,NoGo,0.28411269187927246,0.0,,,
SART,2,546.0,1.0,Go,0.12769460678100586,1.0,,,
SART,2,547.0,7.0,Go,0.3436908721923828,1.0,,,
SART,2,548.0,2.0,Go,0.35997509956359863,1.0,,,
SART,2,549.0,6.0,Go,0.4176020622253418,1.0,,,
SART,2,550.0,2.0,Go,0.41263866424560547,1.0,,,
SART,2,551.0,9.0,Go,0.2812001705169678,1.0,,,
SART,2,552.0,3.0,NoGo,,1.0,,,
SART,2,553.0,4.0,Go,0.23874759674072266,1.0,,,
SART,2,554.0,8.0,Go,0.25720906257629395,1.0,,,
SART,2,555.0,7.0,Go,0.31549763679504395,1.0,,,
SART,2,556.0,5.0,Go,0.31696557998657227,1.0,,,
SART,2,557.0,1.0,Go,0.39557814598083496,1.0,,,
SART,2,558.0,3.0,NoGo,0.3257026672363281,0.0,,,
SART,2,559.0,1.0,Go,0.31231045722961426,1.0,,,
SART,2,560.0,5.0,Go,0.30338621139526367,1.0,,,
SART,2,561.0,7.0,Go,0.32976317405700684,1.0,,,
SART,2,562.0,8.0,Go,0.4920928478240967,1.0,,,
SART,2,563.0,9.0,Go,0.3714172840118408,1.0,,,
SART,2,564.0,2.0,Go,0.26166725158691406,1.0,,,
SART,2,565.0,6.0,Go,0.34551286697387695,1.0,,,
SART,2,566.0,4.0,Go,0.47968363761901855,1.0,,,
SART,2,567.0,8.0,Go,0.2795248031616211,1.0,,,
SART,2,568.0,3.0,NoGo,,1.0,,,
SART,2,569.0,5.0,Go,0.2244865894317627,1.0,,,
SART,2,570.0,1.0,Go,0.26407933235168457,1.0,,,
SART,2,571.0,7.0,Go,0.19214653968811035,1.0,,,
SART,2,572.0,6.0,Go,0.2846565246582031,1.0,,,
SART,2,573.0,4.0,Go,0.276888370513916,1.0,,,
SART,2,574.0,2.0,Go,0.2472531795501709,1.0,,,
SART,2,575.0,9.0,Go,0.3125145435333252,1.0,,,
SART,2,576.0,6.0,Go,0.35593438148498535,1.0,,,
SART,2,577.0,1.0,Go,0.2769734859466553,1.0,,,
SART,2,578.0,3.0,NoGo,,1.0,,,
SART,2,579.0,7.0,Go,0.2897148132324219,1.0,,,
SART,2,580.0,4.0,Go,0.2779383659362793,1.0,,,
SART,2,581.0,2.0,Go,0.3150205612182617,1.0,,,
SART,2,582.0,8.0,Go,0.29430580139160156,1.0,,,
SART,2,583.0,9.0,Go,0.38556814193725586,1.0,,,
SART,2,584.0,5.0,Go,0.37748193740844727,1.0,,,
SART,2,585.0,7.0,Go,0.38579225540161133,1.0,,,
SART,3,0.0,1.0,Go,0.6213762760162354,1.0,,,
SART,3,1.0,9.0,Go,0.3280141353607178,1.0,,,
SART,3,2.0,2.0,Go,0.36386585235595703,1.0,,,
SART,3,3.0,5.0,Go,0.3226931095123291,1.0,,,
SART,3,4.0,4.0,Go,0.36901235580444336,1.0,,,
SART,3,5.0,3.0,NoGo,,1.0,,,
SART,3,6.0,8.0,Go,0.2772035598754883,1.0,,,
SART,3,7.0,7.0,Go,0.4157075881958008,1.0,,,
SART,3,8.0,6.0,Go,0.3400254249572754,1.0,,,
SART,3,9.0,9.0,Go,0.3291647434234619,1.0,,,
SART,3,10.0,1.0,Go,0.3357059955596924,1.0,,,
SART,3,11.0,5.0,Go,0.3563878536224365,1.0,,,
SART,3,12.0,7.0,Go,0.36268186569213867,1.0,,,
SART,3,13.0,2.0,Go,0.36739158630371094,1.0,,,
SART,3,14.0,8.0,Go,0.3256077766418457,1.0,,,
SART,3,15.0,4.0,Go,0.38604068756103516,1.0,,,
SART,3,16.0,6.0,Go,0.646669864654541,1.0,,,
SART,3,17.0,3.0,NoGo,,1.0,,,
SART,3,18.0,5.0,Go,0.3339047431945801,1.0,,,
SART,3,19.0,3.0,NoGo,0.27992796897888184,0.0,,,
SART,3,20.0,4.0,Go,0.31791210174560547,1.0,,,
SART,3,21.0,6.0,Go,0.26338791847229004,1.0,,,
SART,3,22.0,9.0,Go,0.62343430519104,1.0,,,
SART,3,23.0,8.0,Go,0.35579586029052734,1.0,,,
SART,3,24.0,1.0,Go,0.3011772632598877,1.0,,,
SART,3,25.0,2.0,Go,0.3261129856109619,1.0,,,
SART,3,26.0,7.0,Go,0.39400696754455566,1.0,,,
SART,3,27.0,6.0,Go,0.3262193202972412,1.0,,,
SART,3,28.0,4.0,Go,0.36363863945007324,1.0,,,
SART,3,29.0,3.0,NoGo,,1.0,,,
SART,3,30.0,8.0,Go,0.32093071937561035,1.0,,,
SART,3,31.0,9.0,Go,0.3729367256164551,1.0,,,
SART,3,32.0,5.0,Go,0.30100369453430176,1.0,,,
SART,3,33.0,7.0,Go,0.39060068130493164,1.0,,,
SART,3,34.0,2.0,Go,0.3208014965057373,1.0,,,
SART,3,35.0,1.0,Go,0.3460357189178467,1.0,,,
SART,3,36.0,3.0,NoGo,,1.0,,,
SART,3,37.0,1.0,Go,0.3130762577056885,1.0,,,
SART,3,38.0,8.0,Go,0.3018205165863037,1.0,,,
SART,3,39.0,5.0,Go,0.3917989730834961,1.0,,,
SART,3,40.0,4.0,Go,0.38587379455566406,1.0,,,
SART,3,41.0,9.0,Go,0.48482489585876465,1.0,,,
SART,3,42.0,2.0,Go,0.4421067237854004,1.0,,,
SART,3,43.0,6.0,Go,0.3312695026397705,1.0,,,
SART,3,44.0,7.0,Go,0.6225264072418213,1.0,,,
SART,3,45.0,5.0,Go,0.3993263244628906,1.0,,,
SART,3,46.0,3.0,NoGo,,1.0,,,
SART,3,47.0,1.0,Go,0.2617075443267822,1.0,,,
SART,3,48.0,2.0,Go,0.3327934741973877,1.0,,,
SART,3,49.0,7.0,Go,0.5024592876434326,1.0,,,
SART,3,50.0,9.0,Go,0.42858123779296875,1.0,,,
SART,3,51.0,4.0,Go,0.3527064323425293,1.0,,,
SART,3,52.0,8.0,Go,0.41422510147094727,1.0,,,
SART,3,53.0,6.0,Go,0.334317684173584,1.0,,,
SART,3,54.0,8.0,Go,0.3770413398742676,1.0,,,
SART,3,55.0,5.0,Go,0.3985929489135742,1.0,,,
SART,3,56.0,6.0,Go,0.39510488510131836,1.0,,,
SART,3,57.0,3.0,NoGo,,1.0,,,
SART,3,58.0,4.0,Go,0.2868645191192627,1.0,,,
SART,3,59.0,2.0,Go,0.2901787757873535,1.0,,,
SART,3,60.0,7.0,Go,0.3611738681793213,1.0,,,
SART,3,61.0,9.0,Go,0.33890724182128906,1.0,,,
SART,3,62.0,1.0,Go,0.33648109436035156,1.0,,,
SART,3,63.0,8.0,Go,0.33225154876708984,1.0,,,
SART,3,64.0,4.0,Go,0.34760332107543945,1.0,,,
,3,,,,,,1.0,Focus,1.0
,3,,,,,,1.0,Looking,1.0
,3,,,,,,1.0,Awareness,1.0
,3,,,,,,1.0,Intentionality,1.0
,3,,,,,,1.0,Engaging_Thoughts,1.0
,3,,,,,,1.0,Perf_Rating,4.0
,3,,,,,,1.0,Vigilance,4.0
SART,3,65.0,6.0,Go,0.5457620620727539,1.0,,,
SART,3,66.0,3.0,NoGo,,1.0,,,
SART,3,67.0,9.0,Go,0.3092367649078369,1.0,,,
SART,3,68.0,2.0,Go,0.33692121505737305,1.0,,,
SART,3,69.0,5.0,Go,0.31914401054382324,1.0,,,
SART,3,70.0,1.0,Go,0.3390071392059326,1.0,,,
SART,3,71.0,7.0,Go,0.32636547088623047,1.0,,,
SART,3,72.0,9.0,Go,0.36359429359436035,1.0,,,
SART,3,73.0,7.0,Go,0.32611846923828125,1.0,,,
SART,3,74.0,2.0,Go,0.32196831703186035,1.0,,,
SART,3,75.0,1.0,Go,0.390941858291626,1.0,,,
SART,3,76.0,4.0,Go,0.3580000400543213,1.0,,,
SART,3,77.0,6.0,Go,0.367870569229126,1.0,,,
SART,3,78.0,8.0,Go,0.19104814529418945,1.0,,,
SART,3,79.0,5.0,Go,0.3683180809020996,1.0,,,
SART,3,80.0,3.0,NoGo,0.3385469913482666,0.0,,,
SART,3,81.0,5.0,Go,0.8813297748565674,1.0,,,
SART,3,82.0,2.0,Go,,0.0,,,
SART,3,83.0,4.0,Go,0.2766604423522949,1.0,,,
SART,3,84.0,3.0,NoGo,0.6187458038330078,0.0,,,
SART,3,85.0,1.0,Go,0.27483582496643066,1.0,,,
SART,3,86.0,6.0,Go,0.26314377784729004,1.0,,,
SART,3,87.0,9.0,Go,0.2925710678100586,1.0,,,
SART,3,88.0,8.0,Go,0.36435389518737793,1.0,,,
SART,3,89.0,7.0,Go,0.5836212635040283,1.0,,,
SART,3,90.0,4.0,Go,0.38535118103027344,1.0,,,
SART,3,91.0,7.0,Go,0.28473591804504395,1.0,,,
SART,3,92.0,5.0,Go,0.34685373306274414,1.0,,,
SART,3,93.0,3.0,NoGo,0.34369874000549316,0.0,,,
SART,3,94.0,8.0,Go,,0.0,,,
SART,3,95.0,2.0,Go,0.09779691696166992,1.0,,,
SART,3,96.0,1.0,Go,0.3502681255340576,1.0,,,
SART,3,97.0,9.0,Go,0.04800987243652344,1.0,,,
SART,3,98.0,6.0,Go,0.39962172508239746,1.0,,,
SART,3,99.0,2.0,Go,0.3093106746673584,1.0,,,
SART,3,100.0,4.0,Go,0.31813883781433105,1.0,,,
SART,3,101.0,8.0,Go,0.36444568634033203,1.0,,,
SART,3,102.0,9.0,Go,0.3641223907470703,1.0,,,
SART,3,103.0,7.0,Go,0.3473217487335205,1.0,,,
SART,3,104.0,3.0,NoGo,0.3319358825683594,0.0,,,
SART,3,105.0,5.0,Go,0.24297237396240234,1.0,,,
SART,3,106.0,1.0,Go,0.26900362968444824,1.0,,,
SART,3,107.0,6.0,Go,0.028740882873535156,1.0,,,
SART,3,108.0,8.0,Go,0.4368736743927002,1.0,,,
SART,3,109.0,1.0,Go,0.3040273189544678,1.0,,,
SART,3,110.0,4.0,Go,0.339705228805542,1.0,,,
SART,3,111.0,9.0,Go,0.2919282913208008,1.0,,,
SART,3,112.0,2.0,Go,0.5724034309387207,1.0,,,
SART,3,113.0,5.0,Go,0.3722963333129883,1.0,,,
,3,,,,,,2.0,Focus,2.0
,3,,,,,,2.0,Looking,2.0
,3,,,,,,2.0,Awareness,4.0
,3,,,,,,2.0,Intentionality,4.0
,3,,,,,,2.0,Engaging_Thoughts,1.0
,3,,,,,,2.0,Perf_Rating,1.0
,3,,,,,,2.0,Vigilance,1.0
SART,3,114.0,3.0,NoGo,,1.0,,,
SART,3,115.0,6.0,Go,0.5389513969421387,1.0,,,
SART,3,116.0,7.0,Go,0.34772229194641113,1.0,,,
SART,3,117.0,9.0,Go,0.38424110412597656,1.0,,,
SART,3,118.0,4.0,Go,0.39079785346984863,1.0,,,
SART,3,119.0,1.0,Go,0.41538000106811523,1.0,,,
SART,3,120.0,2.0,Go,0.4349370002746582,1.0,,,
SART,3,121.0,3.0,NoGo,,1.0,,,
SART,3,122.0,8.0,Go,0.34221649169921875,1.0,,,
SART,3,123.0,5.0,Go,0.36936044692993164,1.0,,,
SART,3,124.0,7.0,Go,0.42256760597229004,1.0,,,
SART,3,125.0,6.0,Go,0.48080968856811523,1.0,,,
SART,3,126.0,8.0,Go,0.44736361503601074,1.0,,,
SART,3,127.0,7.0,Go,0.3111076354980469,1.0,,,
SART,3,128.0,6.0,Go,0.3860507011413574,1.0,,,
SART,3,129.0,2.0,Go,0.41164660453796387,1.0,,,
SART,3,130.0,4.0,Go,0.36322450637817383,1.0,,,
SART,3,131.0,3.0,NoGo,,1.0,,,
SART,3,132.0,1.0,Go,0.38019442558288574,1.0,,,
SART,3,133.0,9.0,Go,0.5808253288269043,1.0,,,
SART,3,134.0,5.0,Go,0.359835147857666,1.0,,,
SART,3,135.0,3.0,NoGo,,1.0,,,
SART,3,136.0,2.0,Go,0.37594127655029297,1.0,,,
SART,3,137.0,5.0,Go,0.43973851203918457,1.0,,,
SART,3,138.0,9.0,Go,0.41932129859924316,1.0,,,
SART,3,139.0,4.0,Go,0.3688030242919922,1.0,,,
SART,3,140.0,6.0,Go,0.38568830490112305,1.0,,,
SART,3,141.0,1.0,Go,0.5464587211608887,1.0,,,
SART,3,142.0,7.0,Go,0.39769744873046875,1.0,,,
SART,3,143.0,8.0,Go,0.3860297203063965,1.0,,,
SART,3,144.0,3.0,NoGo,,1.0,,,
SART,3,145.0,7.0,Go,0.368438720703125,1.0,,,
SART,3,146.0,1.0,Go,0.3422062397003174,1.0,,,
SART,3,147.0,9.0,Go,0.3456707000732422,1.0,,,
SART,3,148.0,2.0,Go,0.3049774169921875,1.0,,,
SART,3,149.0,5.0,Go,0.3324136734008789,1.0,,,
SART,3,150.0,8.0,Go,0.32137131690979004,1.0,,,
SART,3,151.0,4.0,Go,0.30766773223876953,1.0,,,
SART,3,152.0,6.0,Go,0.3771493434906006,1.0,,,
SART,3,153.0,5.0,Go,0.37974119186401367,1.0,,,
SART,3,154.0,9.0,Go,0.4251139163970947,1.0,,,
SART,3,155.0,7.0,Go,0.31797027587890625,1.0,,,
SART,3,156.0,3.0,NoGo,,1.0,,,
SART,3,157.0,2.0,Go,0.2937462329864502,1.0,,,
SART,3,158.0,4.0,Go,0.3298990726470947,1.0,,,
SART,3,159.0,8.0,Go,0.33715128898620605,1.0,,,
SART,3,160.0,1.0,Go,0.4499082565307617,1.0,,,
SART,3,161.0,6.0,Go,0.35555243492126465,1.0,,,
SART,3,162.0,4.0,Go,0.35053539276123047,1.0,,,
SART,3,163.0,3.0,NoGo,0.3547685146331787,0.0,,,
SART,3,164.0,7.0,Go,0.44235730171203613,1.0,,,
SART,3,165.0,1.0,Go,0.30240321159362793,1.0,,,
SART,3,166.0,6.0,Go,0.3575093746185303,1.0,,,
SART,3,167.0,5.0,Go,0.3241894245147705,1.0,,,
SART,3,168.0,8.0,Go,0.36210131645202637,1.0,,,
SART,3,169.0,9.0,Go,0.36244964599609375,1.0,,,
SART,3,170.0,2.0,Go,0.3456838130950928,1.0,,,
SART,3,171.0,5.0,Go,0.500870943069458,1.0,,,
SART,3,172.0,9.0,Go,0.3527505397796631,1.0,,,
SART,3,173.0,6.0,Go,0.43791627883911133,1.0,,,
SART,3,174.0,1.0,Go,0.3905453681945801,1.0,,,
SART,3,175.0,3.0,NoGo,,1.0,,,
SART,3,176.0,2.0,Go,0.41593050956726074,1.0,,,
SART,3,177.0,4.0,Go,0.3107447624206543,1.0,,,
SART,3,178.0,8.0,Go,0.32994556427001953,1.0,,,
SART,3,179.0,7.0,Go,0.6734042167663574,1.0,,,
SART,3,180.0,6.0,Go,0.6132791042327881,1.0,,,
SART,3,181.0,3.0,NoGo,0.3544175624847412,0.0,,,
,3,,,,,,3.0,Focus,2.0
,3,,,,,,3.0,Looking,1.0
,3,,,,,,3.0,Awareness,2.0
,3,,,,,,3.0,Intentionality,3.0
,3,,,,,,3.0,Engaging_Thoughts,1.0
,3,,,,,,3.0,Perf_Rating,1.0
,3,,,,,,3.0,Vigilance,1.0
SART,3,182.0,5.0,Go,0.639768123626709,1.0,,,
SART,3,183.0,4.0,Go,0.4348156452178955,1.0,,,
SART,3,184.0,1.0,Go,0.26917147636413574,1.0,,,
SART,3,185.0,2.0,Go,0.34343552589416504,1.0,,,
SART,3,186.0,8.0,Go,0.35669875144958496,1.0,,,
SART,3,187.0,7.0,Go,0.38927578926086426,1.0,,,
SART,3,188.0,9.0,Go,0.353975772857666,1.0,,,
SART,3,189.0,2.0,Go,0.35417604446411133,1.0,,,
SART,3,190.0,9.0,Go,0.31530213356018066,1.0,,,
SART,3,191.0,6.0,Go,0.30669665336608887,1.0,,,
SART,3,192.0,1.0,Go,0.28137707710266113,1.0,,,
SART,3,193.0,3.0,NoGo,0.3094794750213623,0.0,,,
SART,3,194.0,4.0,Go,0.251615047454834,1.0,,,
SART,3,195.0,7.0,Go,0.3285677433013916,1.0,,,
SART,3,196.0,8.0,Go,0.22874689102172852,1.0,,,
SART,3,197.0,5.0,Go,0.36617517471313477,1.0,,,
SART,3,198.0,7.0,Go,0.34458255767822266,1.0,,,
SART,3,199.0,5.0,Go,0.31593894958496094,1.0,,,
SART,3,200.0,4.0,Go,0.33283352851867676,1.0,,,
SART,3,201.0,1.0,Go,0.33101630210876465,1.0,,,
SART,3,202.0,8.0,Go,0.28522181510925293,1.0,,,
SART,3,203.0,6.0,Go,0.3556692600250244,1.0,,,
SART,3,204.0,2.0,Go,0.3303062915802002,1.0,,,
SART,3,205.0,3.0,NoGo,0.26433444023132324,0.0,,,
SART,3,206.0,9.0,Go,0.174102783203125,1.0,,,
SART,3,207.0,7.0,Go,0.1204841136932373,1.0,,,
SART,3,208.0,9.0,Go,0.35709285736083984,1.0,,,
SART,3,209.0,8.0,Go,0.33179640769958496,1.0,,,
SART,3,210.0,2.0,Go,0.4402198791503906,1.0,,,
SART,3,211.0,1.0,Go,0.3345506191253662,1.0,,,
SART,3,212.0,5.0,Go,0.37702441215515137,1.0,,,
SART,3,213.0,6.0,Go,0.29494380950927734,1.0,,,
SART,3,214.0,4.0,Go,0.3462374210357666,1.0,,,
SART,3,215.0,3.0,NoGo,0.9157304763793945,0.0,,,
SART,3,216.0,4.0,Go,0.5129058361053467,1.0,,,
SART,3,217.0,6.0,Go,0.3352315425872803,1.0,,,
SART,3,218.0,5.0,Go,0.4294602870941162,1.0,,,
SART,3,219.0,9.0,Go,0.37575674057006836,1.0,,,
SART,3,220.0,2.0,Go,0.3487675189971924,1.0,,,
SART,3,221.0,3.0,NoGo,,1.0,,,
SART,3,222.0,7.0,Go,0.32094764709472656,1.0,,,
SART,3,223.0,8.0,Go,0.3712949752807617,1.0,,,
SART,3,224.0,1.0,Go,0.3633272647857666,1.0,,,
SART,3,225.0,9.0,Go,0.3642561435699463,1.0,,,
SART,3,226.0,1.0,Go,0.3536696434020996,1.0,,,
SART,3,227.0,6.0,Go,0.32540202140808105,1.0,,,
SART,3,228.0,3.0,NoGo,,1.0,,,
SART,3,229.0,8.0,Go,0.2455739974975586,1.0,,,
SART,3,230.0,2.0,Go,0.3787972927093506,1.0,,,
SART,3,231.0,5.0,Go,0.3610355854034424,1.0,,,
SART,3,232.0,7.0,Go,0.3114461898803711,1.0,,,
SART,3,233.0,4.0,Go,0.3743908405303955,1.0,,,
SART,3,234.0,5.0,Go,0.3408989906311035,1.0,,,
SART,3,235.0,4.0,Go,0.4007234573364258,1.0,,,
SART,3,236.0,6.0,Go,0.33571839332580566,1.0,,,
SART,3,237.0,3.0,NoGo,,1.0,,,
SART,3,238.0,9.0,Go,0.2593874931335449,1.0,,,
,3,,,,,,4.0,Focus,1.0
,3,,,,,,4.0,Looking,1.0
,3,,,,,,4.0,Awareness,3.0
,3,,,,,,4.0,Intentionality,3.0
,3,,,,,,4.0,Engaging_Thoughts,1.0
,3,,,,,,4.0,Perf_Rating,1.0
,3,,,,,,4.0,Vigilance,1.0
SART,3,239.0,8.0,Go,,0.0,,,
SART,3,240.0,1.0,Go,0.6093988418579102,1.0,,,
SART,3,241.0,2.0,Go,0.3358032703399658,1.0,,,
SART,3,242.0,7.0,Go,0.29927515983581543,1.0,,,
SART,3,243.0,9.0,Go,0.3237574100494385,1.0,,,
SART,3,244.0,4.0,Go,0.3069884777069092,1.0,,,
SART,3,245.0,3.0,NoGo,,1.0,,,
SART,3,246.0,6.0,Go,0.2900514602661133,1.0,,,
SART,3,247.0,8.0,Go,0.3002290725708008,1.0,,,
SART,3,248.0,2.0,Go,0.30684351921081543,1.0,,,
SART,3,249.0,5.0,Go,0.3043081760406494,1.0,,,
SART,3,250.0,1.0,Go,0.24628520011901855,1.0,,,
SART,3,251.0,7.0,Go,0.3186206817626953,1.0,,,
SART,3,252.0,4.0,Go,0.28530049324035645,1.0,,,
SART,3,253.0,2.0,Go,0.32582831382751465,1.0,,,
SART,3,254.0,6.0,Go,0.34764719009399414,1.0,,,
SART,3,255.0,7.0,Go,0.30170512199401855,1.0,,,
SART,3,256.0,9.0,Go,0.4241056442260742,1.0,,,
SART,3,257.0,8.0,Go,0.253537654876709,1.0,,,
SART,3,258.0,5.0,Go,0.392017126083374,1.0,,,
SART,3,259.0,3.0,NoGo,0.3257725238800049,0.0,,,
SART,3,260.0,1.0,Go,0.2326817512512207,1.0,,,
SART,3,261.0,8.0,Go,0.24863195419311523,1.0,,,
SART,3,262.0,5.0,Go,0.35790157318115234,1.0,,,
SART,3,263.0,1.0,Go,0.40130019187927246,1.0,,,
SART,3,264.0,4.0,Go,0.460296630859375,1.0,,,
SART,3,265.0,2.0,Go,0.4958655834197998,1.0,,,
SART,3,266.0,7.0,Go,0.7278077602386475,1.0,,,
SART,3,267.0,6.0,Go,0.6798865795135498,1.0,,,
SART,3,268.0,9.0,Go,0.47569942474365234,1.0,,,
SART,3,269.0,3.0,NoGo,0.33852314949035645,0.0,,,
SART,3,270.0,8.0,Go,0.32526326179504395,1.0,,,
SART,3,271.0,3.0,NoGo,1.0275073051452637,0.0,,,
SART,3,272.0,7.0,Go,0.3882725238800049,1.0,,,
SART,3,273.0,4.0,Go,0.3797767162322998,1.0,,,
SART,3,274.0,1.0,Go,0.46163272857666016,1.0,,,
SART,3,275.0,2.0,Go,0.4270060062408447,1.0,,,
SART,3,276.0,9.0,Go,0.33290553092956543,1.0,,,
SART,3,277.0,5.0,Go,0.44190454483032227,1.0,,,
SART,3,278.0,6.0,Go,0.35113048553466797,1.0,,,
SART,3,279.0,2.0,Go,0.39868712425231934,1.0,,,
SART,3,280.0,6.0,Go,0.7110080718994141,1.0,,,
SART,3,281.0,3.0,NoGo,,1.0,,,
SART,3,282.0,7.0,Go,0.2656216621398926,1.0,,,
SART,3,283.0,5.0,Go,0.32170748710632324,1.0,,,
SART,3,284.0,8.0,Go,0.3846614360809326,1.0,,,
SART,3,285.0,1.0,Go,0.6378974914550781,1.0,,,
SART,3,286.0,9.0,Go,0.3410201072692871,1.0,,,
SART,3,287.0,4.0,Go,0.29465293884277344,1.0,,,
,3,,,,,,5.0,Focus,2.0
,3,,,,,,5.0,Looking,1.0
,3,,,,,,5.0,Awareness,3.0
,3,,,,,,5.0,Intentionality,3.0
,3,,,,,,5.0,Engaging_Thoughts,2.0
,3,,,,,,5.0,Perf_Rating,1.0
,3,,,,,,5.0,Vigilance,1.0
SART,3,288.0,2.0,Go,0.5484638214111328,1.0,,,
SART,3,289.0,9.0,Go,0.3384671211242676,1.0,,,
SART,3,290.0,5.0,Go,0.3712944984436035,1.0,,,
SART,3,291.0,1.0,Go,0.34577083587646484,1.0,,,
SART,3,292.0,8.0,Go,0.4016871452331543,1.0,,,
SART,3,293.0,3.0,NoGo,,1.0,,,
SART,3,294.0,6.0,Go,0.3358950614929199,1.0,,,
SART,3,295.0,4.0,Go,0.3311192989349365,1.0,,,
SART,3,296.0,7.0,Go,0.29865360260009766,1.0,,,
SART,3,297.0,4.0,Go,0.3159937858581543,1.0,,,
SART,3,298.0,8.0,Go,0.29351019859313965,1.0,,,
SART,3,299.0,1.0,Go,0.30864858627319336,1.0,,,
SART,3,300.0,5.0,Go,0.31548619270324707,1.0,,,
SART,3,301.0,7.0,Go,0.3287241458892822,1.0,,,
SART,3,302.0,9.0,Go,0.3203761577606201,1.0,,,
SART,3,303.0,6.0,Go,0.3247108459472656,1.0,,,
SART,3,304.0,2.0,Go,0.30843067169189453,1.0,,,
SART,3,305.0,3.0,NoGo,0.35425734519958496,0.0,,,
SART,3,306.0,5.0,Go,0.34076809883117676,1.0,,,
SART,3,307.0,6.0,Go,0.2641618251800537,1.0,,,
SART,3,308.0,1.0,Go,0.31821608543395996,1.0,,,
SART,3,309.0,7.0,Go,0.3281073570251465,1.0,,,
SART,3,310.0,4.0,Go,0.3433194160461426,1.0,,,
SART,3,311.0,9.0,Go,0.3520536422729492,1.0,,,
SART,3,312.0,8.0,Go,0.400526762008667,1.0,,,
SART,3,313.0,3.0,NoGo,,1.0,,,
SART,3,314.0,2.0,Go,0.33286094665527344,1.0,,,
SART,3,315.0,8.0,Go,0.33124470710754395,1.0,,,
SART,3,316.0,1.0,Go,0.32377028465270996,1.0,,,
SART,3,317.0,9.0,Go,0.36235976219177246,1.0,,,
SART,3,318.0,6.0,Go,0.41822123527526855,1.0,,,
SART,3,319.0,3.0,NoGo,,1.0,,,
SART,3,320.0,7.0,Go,0.3943450450897217,1.0,,,
SART,3,321.0,2.0,Go,0.2935757637023926,1.0,,,
SART,3,322.0,4.0,Go,0.33611321449279785,1.0,,,
SART,3,323.0,5.0,Go,0.3448827266693115,1.0,,,
SART,3,324.0,8.0,Go,0.33225369453430176,1.0,,,
SART,3,325.0,5.0,Go,0.3625822067260742,1.0,,,
SART,3,326.0,3.0,NoGo,0.3847506046295166,0.0,,,
SART,3,327.0,6.0,Go,0.35491323471069336,1.0,,,
SART,3,328.0,4.0,Go,0.1965169906616211,1.0,,,
SART,3,329.0,1.0,Go,0.41597652435302734,1.0,,,
SART,3,330.0,2.0,Go,0.37468862533569336,1.0,,,
SART,3,331.0,7.0,Go,0.4512474536895752,1.0,,,
SART,3,332.0,9.0,Go,0.3972010612487793,1.0,,,
SART,3,333.0,5.0,Go,0.4134514331817627,1.0,,,
SART,3,334.0,6.0,Go,0.34697580337524414,1.0,,,
SART,3,335.0,1.0,Go,0.3535337448120117,1.0,,,
SART,3,336.0,7.0,Go,0.3244471549987793,1.0,,,
SART,3,337.0,4.0,Go,0.30415940284729004,1.0,,,
SART,3,338.0,2.0,Go,0.3385031223297119,1.0,,,
SART,3,339.0,3.0,NoGo,0.30921053886413574,0.0,,,
SART,3,340.0,8.0,Go,0.3140690326690674,1.0,,,
SART,3,341.0,9.0,Go,0.40320897102355957,1.0,,,
SART,3,342.0,2.0,Go,0.4013636112213135,1.0,,,
SART,3,343.0,4.0,Go,0.33757948875427246,1.0,,,
SART,3,344.0,6.0,Go,0.31981587409973145,1.0,,,
SART,3,345.0,7.0,Go,0.3466613292694092,1.0,,,
SART,3,346.0,8.0,Go,0.33917713165283203,1.0,,,
SART,3,347.0,5.0,Go,0.43048715591430664,1.0,,,
SART,3,348.0,1.0,Go,0.5405292510986328,1.0,,,
SART,3,349.0,3.0,NoGo,,1.0,,,
,3,,,,,,6.0,Focus,2.0
,3,,,,,,6.0,Looking,1.0
,3,,,,,,6.0,Awareness,3.0
,3,,,,,,6.0,Intentionality,3.0
,3,,,,,,6.0,Engaging_Thoughts,2.0
,3,,,,,,6.0,Perf_Rating,1.0
,3,,,,,,6.0,Vigilance,1.0
SART,3,350.0,9.0,Go,0.453141450881958,1.0,,,
SART,3,351.0,4.0,Go,0.40618109703063965,1.0,,,
SART,3,352.0,8.0,Go,0.3326692581176758,1.0,,,
SART,3,353.0,2.0,Go,0.35693955421447754,1.0,,,
SART,3,354.0,1.0,Go,0.39725708961486816,1.0,,,
SART,3,355.0,6.0,Go,0.3110651969909668,1.0,,,
SART,3,356.0,3.0,NoGo,,1.0,,,
SART,3,357.0,7.0,Go,0.29625964164733887,1.0,,,
SART,3,358.0,5.0,Go,0.32068896293640137,1.0,,,
SART,3,359.0,9.0,Go,0.3370213508605957,1.0,,,
SART,3,360.0,8.0,Go,0.4297146797180176,1.0,,,
SART,3,361.0,5.0,Go,0.3986799716949463,1.0,,,
SART,3,362.0,3.0,NoGo,0.36193394660949707,0.0,,,
SART,3,363.0,4.0,Go,0.36307477951049805,1.0,,,
SART,3,364.0,1.0,Go,0.28937244415283203,1.0,,,
SART,3,365.0,9.0,Go,0.0998985767364502,1.0,,,
SART,3,366.0,6.0,Go,0.34686779975891113,1.0,,,
SART,3,367.0,2.0,Go,0.3149890899658203,1.0,,,
SART,3,368.0,7.0,Go,0.39534735679626465,1.0,,,
SART,3,369.0,5.0,Go,0.5376381874084473,1.0,,,
SART,3,370.0,8.0,Go,0.41040706634521484,1.0,,,
SART,3,371.0,3.0,NoGo,,1.0,,,
SART,3,372.0,4.0,Go,0.35767555236816406,1.0,,,
SART,3,373.0,7.0,Go,0.3063788414001465,1.0,,,
SART,3,374.0,9.0,Go,0.4445459842681885,1.0,,,
SART,3,375.0,2.0,Go,0.3768343925476074,1.0,,,
SART,3,376.0,6.0,Go,0.497302770614624,1.0,,,
SART,3,377.0,1.0,Go,0.37759923934936523,1.0,,,
SART,3,378.0,6.0,Go,0.3104081153869629,1.0,,,
SART,3,379.0,7.0,Go,0.3170442581176758,1.0,,,
SART,3,380.0,9.0,Go,0.44280290603637695,1.0,,,
SART,3,381.0,3.0,NoGo,,1.0,,,
SART,3,382.0,5.0,Go,0.1917741298675537,1.0,,,
SART,3,383.0,2.0,Go,0.3099672794342041,1.0,,,
SART,3,384.0,8.0,Go,0.4321460723876953,1.0,,,
SART,3,385.0,4.0,Go,0.4024984836578369,1.0,,,
SART,3,386.0,1.0,Go,0.3355093002319336,1.0,,,
SART,3,387.0,5.0,Go,0.4460415840148926,1.0,,,
SART,3,388.0,9.0,Go,0.41869258880615234,1.0,,,
SART,3,389.0,1.0,Go,0.5294499397277832,1.0,,,
SART,3,390.0,3.0,NoGo,,1.0,,,
SART,3,391.0,6.0,Go,0.3173370361328125,1.0,,,
SART,3,392.0,7.0,Go,0.29286837577819824,1.0,,,
SART,3,393.0,4.0,Go,0.3179056644439697,1.0,,,
SART,3,394.0,8.0,Go,0.45333290100097656,1.0,,,
SART,3,395.0,2.0,Go,0.3915839195251465,1.0,,,
SART,3,396.0,4.0,Go,0.3861122131347656,1.0,,,
SART,3,397.0,8.0,Go,0.3548300266265869,1.0,,,
SART,3,398.0,6.0,Go,0.444652795791626,1.0,,,
SART,3,399.0,3.0,NoGo,,1.0,,,
SART,3,400.0,2.0,Go,0.31994032859802246,1.0,,,
,3,,,,,,7.0,Focus,1.0
,3,,,,,,7.0,Looking,1.0
,3,,,,,,7.0,Awareness,2.0
,3,,,,,,7.0,Intentionality,2.0
,3,,,,,,7.0,Engaging_Thoughts,2.0
,3,,,,,,7.0,Perf_Rating,2.0
,3,,,,,,7.0,Vigilance,1.0
SART,3,401.0,9.0,Go,0.4769718647003174,1.0,,,
SART,3,402.0,5.0,Go,0.2886214256286621,1.0,,,
SART,3,403.0,1.0,Go,0.4523446559906006,1.0,,,
SART,3,404.0,7.0,Go,0.32201290130615234,1.0,,,
SART,3,405.0,4.0,Go,0.3142392635345459,1.0,,,
SART,3,406.0,3.0,NoGo,,1.0,,,
SART,3,407.0,1.0,Go,0.2868332862854004,1.0,,,
SART,3,408.0,8.0,Go,0.3487362861633301,1.0,,,
SART,3,409.0,5.0,Go,0.3138153553009033,1.0,,,
SART,3,410.0,2.0,Go,0.34120941162109375,1.0,,,
SART,3,411.0,7.0,Go,0.32227015495300293,1.0,,,
SART,3,412.0,6.0,Go,0.3120090961456299,1.0,,,
SART,3,413.0,9.0,Go,0.29204344749450684,1.0,,,
SART,3,414.0,4.0,Go,0.33080482482910156,1.0,,,
SART,3,415.0,9.0,Go,0.3474698066711426,1.0,,,
SART,3,416.0,8.0,Go,0.3994417190551758,1.0,,,
SART,3,417.0,7.0,Go,0.45193004608154297,1.0,,,
SART,3,418.0,5.0,Go,0.32276153564453125,1.0,,,
SART,3,419.0,1.0,Go,0.403778076171875,1.0,,,
SART,3,420.0,6.0,Go,0.43559956550598145,1.0,,,
SART,3,421.0,3.0,NoGo,0.9114048480987549,0.0,,,
SART,3,422.0,2.0,Go,0.46755170822143555,1.0,,,
SART,3,423.0,9.0,Go,0.039597272872924805,1.0,,,
SART,3,424.0,2.0,Go,0.3135249614715576,1.0,,,
SART,3,425.0,5.0,Go,0.40233802795410156,1.0,,,
SART,3,426.0,8.0,Go,0.390472412109375,1.0,,,
SART,3,427.0,6.0,Go,0.40788936614990234,1.0,,,
SART,3,428.0,1.0,Go,0.42803525924682617,1.0,,,
SART,3,429.0,7.0,Go,0.4343245029449463,1.0,,,
SART,3,430.0,3.0,NoGo,,1.0,,,
SART,3,431.0,4.0,Go,0.3553042411804199,1.0,,,
SART,3,432.0,8.0,Go,0.26548075675964355,1.0,,,
SART,3,433.0,4.0,Go,0.3686249256134033,1.0,,,
SART,3,434.0,3.0,NoGo,,1.0,,,
SART,3,435.0,6.0,Go,0.3429446220397949,1.0,,,
SART,3,436.0,7.0,Go,0.4039897918701172,1.0,,,
SART,3,437.0,1.0,Go,0.3572964668273926,1.0,,,
SART,3,438.0,9.0,Go,0.3023543357849121,1.0,,,
SART,3,439.0,5.0,Go,0.32700252532958984,1.0,,,
SART,3,440.0,2.0,Go,0.29886603355407715,1.0,,,
SART,3,441.0,9.0,Go,0.43059754371643066,1.0,,,
SART,3,442.0,8.0,Go,0.39484214782714844,1.0,,,
SART,3,443.0,1.0,Go,0.35191941261291504,1.0,,,
SART,3,444.0,6.0,Go,0.3780941963195801,1.0,,,
SART,3,445.0,4.0,Go,0.4096846580505371,1.0,,,
SART,3,446.0,5.0,Go,0.37310218811035156,1.0,,,
SART,3,447.0,7.0,Go,0.4130849838256836,1.0,,,
SART,3,448.0,2.0,Go,0.4453909397125244,1.0,,,
SART,3,449.0,3.0,NoGo,,1.0,,,
SART,3,450.0,8.0,Go,0.35211610794067383,1.0,,,
SART,3,451.0,7.0,Go,0.33563995361328125,1.0,,,
SART,3,452.0,5.0,Go,0.3626227378845215,1.0,,,
SART,3,453.0,6.0,Go,0.38397693634033203,1.0,,,
SART,3,454.0,2.0,Go,0.4228389263153076,1.0,,,
SART,3,455.0,9.0,Go,0.41568970680236816,1.0,,,
SART,3,456.0,1.0,Go,0.4449594020843506,1.0,,,
SART,3,457.0,4.0,Go,0.3751399517059326,1.0,,,
SART,3,458.0,3.0,NoGo,,1.0,,,
SART,3,459.0,7.0,Go,0.3065955638885498,1.0,,,
SART,3,460.0,8.0,Go,0.3051643371582031,1.0,,,
SART,3,461.0,3.0,NoGo,0.41626739501953125,0.0,,,
SART,3,462.0,1.0,Go,0.4184303283691406,1.0,,,
,3,,,,,,8.0,Focus,2.0
,3,,,,,,8.0,Looking,1.0
,3,,,,,,8.0,Awareness,4.0
,3,,,,,,8.0,Intentionality,4.0
,3,,,,,,8.0,Engaging_Thoughts,2.0
,3,,,,,,8.0,Perf_Rating,1.0
,3,,,,,,8.0,Vigilance,1.0
SART,3,463.0,6.0,Go,0.5892922878265381,1.0,,,
SART,3,464.0,5.0,Go,0.33031249046325684,1.0,,,
SART,3,465.0,9.0,Go,0.37343859672546387,1.0,,,
SART,3,466.0,2.0,Go,0.3305816650390625,1.0,,,
SART,3,467.0,4.0,Go,0.2936878204345703,1.0,,,
SART,3,468.0,2.0,Go,0.34618496894836426,1.0,,,
SART,3,469.0,1.0,Go,0.2971765995025635,1.0,,,
SART,3,470.0,6.0,Go,0.29572105407714844,1.0,,,
SART,3,471.0,4.0,Go,0.3437159061431885,1.0,,,
SART,3,472.0,5.0,Go,0.3362855911254883,1.0,,,
SART,3,473.0,3.0,NoGo,,1.0,,,
SART,3,474.0,7.0,Go,0.2831296920776367,1.0,,,
SART,4,0.0,2.0,Go,0.6598775386810303,1.0,,,
SART,4,1.0,3.0,NoGo,,1.0,,,
SART,4,2.0,8.0,Go,0.35681772232055664,1.0,,,
SART,4,3.0,6.0,Go,0.37822937965393066,1.0,,,
SART,4,4.0,5.0,Go,0.3574211597442627,1.0,,,
SART,4,5.0,9.0,Go,0.3162412643432617,1.0,,,
SART,4,6.0,7.0,Go,0.47948360443115234,1.0,,,
SART,4,7.0,1.0,Go,0.4692206382751465,1.0,,,
SART,4,8.0,4.0,Go,0.4121673107147217,1.0,,,
SART,4,9.0,2.0,Go,0.4567859172821045,1.0,,,
SART,4,10.0,4.0,Go,0.3659627437591553,1.0,,,
SART,4,11.0,3.0,NoGo,,1.0,,,
SART,4,12.0,1.0,Go,0.2909729480743408,1.0,,,
SART,4,13.0,5.0,Go,0.5197818279266357,1.0,,,
SART,4,14.0,6.0,Go,0.43263721466064453,1.0,,,
SART,4,15.0,9.0,Go,0.3276073932647705,1.0,,,
SART,4,16.0,7.0,Go,0.3295114040374756,1.0,,,
SART,4,17.0,8.0,Go,0.3293733596801758,1.0,,,
SART,4,18.0,3.0,NoGo,,1.0,,,
SART,4,19.0,2.0,Go,0.21717119216918945,1.0,,,
SART,4,20.0,5.0,Go,0.30360984802246094,1.0,,,
SART,4,21.0,8.0,Go,0.3281261920928955,1.0,,,
SART,4,22.0,6.0,Go,0.301393985748291,1.0,,,
SART,4,23.0,1.0,Go,0.2443850040435791,1.0,,,
SART,4,24.0,9.0,Go,0.2791018486022949,1.0,,,
SART,4,25.0,4.0,Go,0.3026621341705322,1.0,,,
SART,4,26.0,7.0,Go,0.39156484603881836,1.0,,,
SART,4,27.0,1.0,Go,0.31904029846191406,1.0,,,
SART,4,28.0,5.0,Go,0.4752049446105957,1.0,,,
SART,4,29.0,8.0,Go,0.3284566402435303,1.0,,,
SART,4,30.0,6.0,Go,0.26999926567077637,1.0,,,
SART,4,31.0,3.0,NoGo,0.2874104976654053,0.0,,,
SART,4,32.0,2.0,Go,0.36968016624450684,1.0,,,
SART,4,33.0,4.0,Go,0.3146946430206299,1.0,,,
SART,4,34.0,7.0,Go,0.26000523567199707,1.0,,,
SART,4,35.0,9.0,Go,,0.0,,,
SART,4,36.0,8.0,Go,0.08108878135681152,1.0,,,
SART,4,37.0,2.0,Go,0.4067678451538086,1.0,,,
SART,4,38.0,9.0,Go,0.5161948204040527,1.0,,,
SART,4,39.0,3.0,NoGo,,1.0,,,
SART,4,40.0,7.0,Go,0.49646520614624023,1.0,,,
SART,4,41.0,4.0,Go,0.5417079925537109,1.0,,,
SART,4,42.0,6.0,Go,0.5535006523132324,1.0,,,
,4,,,,,,1.0,Focus,1.0
,4,,,,,,1.0,Looking,1.0
,4,,,,,,1.0,Awareness,1.0
,4,,,,,,1.0,Intentionality,1.0
,4,,,,,,1.0,Engaging_Thoughts,1.0
,4,,,,,,1.0,Perf_Rating,1.0
,4,,,,,,1.0,Vigilance,1.0
SART,4,43.0,5.0,Go,0.7209262847900391,1.0,,,
SART,4,44.0,1.0,Go,0.3494446277618408,1.0,,,
SART,4,45.0,5.0,Go,0.3404841423034668,1.0,,,
SART,4,46.0,1.0,Go,0.28302812576293945,1.0,,,
SART,4,47.0,3.0,NoGo,0.38434410095214844,0.0,,,
SART,4,48.0,9.0,Go,0.38510775566101074,1.0,,,
SART,4,49.0,2.0,Go,0.4734492301940918,1.0,,,
SART,4,50.0,4.0,Go,0.30597472190856934,1.0,,,
SART,4,51.0,6.0,Go,0.2580544948577881,1.0,,,
SART,4,52.0,7.0,Go,0.30389904975891113,1.0,,,
SART,4,53.0,8.0,Go,0.4007408618927002,1.0,,,
SART,4,54.0,3.0,NoGo,,1.0,,,
SART,4,55.0,1.0,Go,0.05271339416503906,1.0,,,
SART,4,56.0,4.0,Go,0.3592536449432373,1.0,,,
SART,4,57.0,9.0,Go,0.3833777904510498,1.0,,,
SART,4,58.0,6.0,Go,0.46095943450927734,1.0,,,
SART,4,59.0,2.0,Go,0.36553072929382324,1.0,,,
SART,4,60.0,7.0,Go,0.3776664733886719,1.0,,,
SART,4,61.0,8.0,Go,0.32071638107299805,1.0,,,
SART,4,62.0,5.0,Go,0.3358144760131836,1.0,,,
SART,4,63.0,1.0,Go,0.3756897449493408,1.0,,,
SART,4,64.0,8.0,Go,0.32856321334838867,1.0,,,
SART,4,65.0,5.0,Go,0.2898247241973877,1.0,,,
SART,4,66.0,4.0,Go,0.32433319091796875,1.0,,,
SART,4,67.0,9.0,Go,0.3157370090484619,1.0,,,
SART,4,68.0,2.0,Go,0.32199692726135254,1.0,,,
SART,4,69.0,3.0,NoGo,,1.0,,,
SART,4,70.0,6.0,Go,0.28034520149230957,1.0,,,
SART,4,71.0,7.0,Go,0.27036190032958984,1.0,,,
SART,4,72.0,6.0,Go,0.6565907001495361,1.0,,,
SART,4,73.0,1.0,Go,0.4443802833557129,1.0,,,
SART,4,74.0,5.0,Go,0.2769911289215088,1.0,,,
SART,4,75.0,9.0,Go,0.41251707077026367,1.0,,,
SART,4,76.0,2.0,Go,0.36220359802246094,1.0,,,
SART,4,77.0,8.0,Go,0.3184220790863037,1.0,,,
SART,4,78.0,7.0,Go,0.3214108943939209,1.0,,,
SART,4,79.0,3.0,NoGo,,1.0,,,
SART,4,80.0,4.0,Go,0.41285204887390137,1.0,,,
SART,4,81.0,3.0,NoGo,0.30043816566467285,0.0,,,
SART,4,82.0,6.0,Go,0.27631282806396484,1.0,,,
SART,4,83.0,2.0,Go,0.2675919532775879,1.0,,,
SART,4,84.0,4.0,Go,0.300614595413208,1.0,,,
SART,4,85.0,7.0,Go,0.5269920825958252,1.0,,,
SART,4,86.0,5.0,Go,0.3035309314727783,1.0,,,
SART,4,87.0,1.0,Go,0.5242002010345459,1.0,,,
SART,4,88.0,8.0,Go,0.5922126770019531,1.0,,,
SART,4,89.0,9.0,Go,0.5027186870574951,1.0,,,
,4,,,,,,2.0,Focus,2.0
,4,,,,,,2.0,Looking,1.0
,4,,,,,,2.0,Awareness,3.0
,4,,,,,,2.0,Intentionality,3.0
,4,,,,,,2.0,Engaging_Thoughts,2.0
,4,,,,,,2.0,Perf_Rating,1.0
,4,,,,,,2.0,Vigilance,1.0
SART,4,90.0,8.0,Go,0.5562524795532227,1.0,,,
SART,4,91.0,5.0,Go,0.3010594844818115,1.0,,,
SART,4,92.0,6.0,Go,0.31706714630126953,1.0,,,
SART,4,93.0,1.0,Go,0.32454967498779297,1.0,,,
SART,4,94.0,4.0,Go,0.3414444923400879,1.0,,,
SART,4,95.0,9.0,Go,0.26775360107421875,1.0,,,
SART,4,96.0,3.0,NoGo,0.3136777877807617,0.0,,,
SART,4,97.0,7.0,Go,0.234541654586792,1.0,,,
SART,4,98.0,2.0,Go,0.28797459602355957,1.0,,,
SART,4,99.0,3.0,NoGo,,1.0,,,
SART,4,100.0,7.0,Go,0.2735476493835449,1.0,,,
SART,4,101.0,9.0,Go,0.3048396110534668,1.0,,,
SART,4,102.0,5.0,Go,0.3507366180419922,1.0,,,
SART,4,103.0,8.0,Go,0.4119126796722412,1.0,,,
SART,4,104.0,2.0,Go,0.3076961040496826,1.0,,,
SART,4,105.0,6.0,Go,0.3192718029022217,1.0,,,
SART,4,106.0,1.0,Go,0.3355557918548584,1.0,,,
SART,4,107.0,4.0,Go,0.3100147247314453,1.0,,,
SART,4,108.0,7.0,Go,0.28450608253479004,1.0,,,
SART,4,109.0,4.0,Go,0.3037443161010742,1.0,,,
SART,4,110.0,6.0,Go,0.29805684089660645,1.0,,,
SART,4,111.0,8.0,Go,0.28597307205200195,1.0,,,
SART,4,112.0,2.0,Go,0.40821123123168945,1.0,,,
SART,4,113.0,9.0,Go,0.3060166835784912,1.0,,,
SART,4,114.0,3.0,NoGo,,1.0,,,
SART,4,115.0,5.0,Go,0.2812361717224121,1.0,,,
SART,4,116.0,1.0,Go,0.3019754886627197,1.0,,,
SART,4,117.0,8.0,Go,0.31215333938598633,1.0,,,
SART,4,118.0,2.0,Go,0.3020355701446533,1.0,,,
SART,4,119.0,4.0,Go,0.2947516441345215,1.0,,,
SART,4,120.0,1.0,Go,0.33313584327697754,1.0,,,
SART,4,121.0,7.0,Go,0.30550289154052734,1.0,,,
SART,4,122.0,3.0,NoGo,0.32636356353759766,0.0,,,
SART,4,123.0,9.0,Go,0.30112576484680176,1.0,,,
SART,4,124.0,5.0,Go,0.26239466667175293,1.0,,,
SART,4,125.0,6.0,Go,0.3966248035430908,1.0,,,
SART,4,126.0,5.0,Go,0.4160182476043701,1.0,,,
SART,4,127.0,6.0,Go,0.36124134063720703,1.0,,,
SART,4,128.0,4.0,Go,0.3008904457092285,1.0,,,
SART,4,129.0,1.0,Go,0.3956148624420166,1.0,,,
SART,4,130.0,3.0,NoGo,,1.0,,,
SART,4,131.0,8.0,Go,0.3013265132904053,1.0,,,
SART,4,132.0,9.0,Go,0.3201920986175537,1.0,,,
SART,4,133.0,7.0,Go,0.39259886741638184,1.0,,,
SART,4,134.0,2.0,Go,0.2057185173034668,1.0,,,
SART,4,135.0,8.0,Go,0.334306001663208,1.0,,,
SART,4,136.0,6.0,Go,0.5770359039306641,1.0,,,
SART,4,137.0,4.0,Go,0.36605310440063477,1.0,,,
SART,4,138.0,7.0,Go,0.35564255714416504,1.0,,,
SART,4,139.0,5.0,Go,0.3932039737701416,1.0,,,
SART,4,140.0,2.0,Go,0.4315195083618164,1.0,,,
SART,4,141.0,3.0,NoGo,,1.0,,,
SART,4,142.0,1.0,Go,0.2699458599090576,1.0,,,
SART,4,143.0,9.0,Go,0.2662179470062256,1.0,,,
SART,4,144.0,7.0,Go,0.28481101989746094,1.0,,,
SART,4,145.0,5.0,Go,0.30680227279663086,1.0,,,
SART,4,146.0,9.0,Go,0.319150447845459,1.0,,,
SART,4,147.0,6.0,Go,0.3721191883087158,1.0,,,
SART,4,148.0,3.0,NoGo,,1.0,,,
SART,4,149.0,2.0,Go,0.27924489974975586,1.0,,,
SART,4,150.0,4.0,Go,0.2796132564544678,1.0,,,
,4,,,,,,3.0,Focus,1.0
,4,,,,,,3.0,Looking,1.0
,4,,,,,,3.0,Awareness,1.0
,4,,,,,,3.0,Intentionality,1.0
,4,,,,,,3.0,Engaging_Thoughts,1.0
,4,,,,,,3.0,Perf_Rating,3.0
,4,,,,,,3.0,Vigilance,3.0
SART,4,151.0,8.0,Go,0.6446371078491211,1.0,,,
SART,4,152.0,1.0,Go,0.27997803688049316,1.0,,,
SART,4,153.0,3.0,NoGo,,1.0,,,
SART,4,154.0,1.0,Go,0.39827537536621094,1.0,,,
SART,4,155.0,9.0,Go,0.299238920211792,1.0,,,
SART,4,156.0,2.0,Go,0.32949018478393555,1.0,,,
SART,4,157.0,6.0,Go,0.3571815490722656,1.0,,,
SART,4,158.0,7.0,Go,0.27878832817077637,1.0,,,
SART,4,159.0,5.0,Go,0.30518507957458496,1.0,,,
SART,4,160.0,8.0,Go,0.28609204292297363,1.0,,,
SART,4,161.0,4.0,Go,0.30728602409362793,1.0,,,
SART,4,162.0,8.0,Go,0.3151671886444092,1.0,,,
SART,4,163.0,2.0,Go,0.28819894790649414,1.0,,,
SART,4,164.0,5.0,Go,0.3272244930267334,1.0,,,
SART,4,165.0,3.0,NoGo,0.336850643157959,0.0,,,
SART,4,166.0,1.0,Go,0.3735525608062744,1.0,,,
SART,4,167.0,6.0,Go,0.34893321990966797,1.0,,,
SART,4,168.0,7.0,Go,0.4310629367828369,1.0,,,
SART,4,169.0,4.0,Go,0.3385584354400635,1.0,,,
SART,4,170.0,9.0,Go,0.5525641441345215,1.0,,,
SART,4,171.0,4.0,Go,0.40179443359375,1.0,,,
SART,4,172.0,2.0,Go,0.3066091537475586,1.0,,,
SART,4,173.0,8.0,Go,0.4797086715698242,1.0,,,
SART,4,174.0,7.0,Go,0.4038200378417969,1.0,,,
SART,4,175.0,3.0,NoGo,,1.0,,,
SART,4,176.0,9.0,Go,0.271282434463501,1.0,,,
SART,4,177.0,6.0,Go,0.34194040298461914,1.0,,,
SART,4,178.0,1.0,Go,0.3385603427886963,1.0,,,
SART,4,179.0,5.0,Go,0.3076612949371338,1.0,,,
SART,4,180.0,6.0,Go,0.3792085647583008,1.0,,,
SART,4,181.0,5.0,Go,0.3907017707824707,1.0,,,
SART,4,182.0,2.0,Go,0.3775520324707031,1.0,,,
SART,4,183.0,7.0,Go,0.33037829399108887,1.0,,,
SART,4,184.0,4.0,Go,0.359821081161499,1.0,,,
SART,4,185.0,9.0,Go,0.3238804340362549,1.0,,,
SART,4,186.0,3.0,NoGo,,1.0,,,
SART,4,187.0,1.0,Go,0.2756361961364746,1.0,,,
SART,4,188.0,8.0,Go,0.27808666229248047,1.0,,,
SART,4,189.0,3.0,NoGo,,1.0,,,
SART,4,190.0,5.0,Go,0.31981515884399414,1.0,,,
SART,4,191.0,7.0,Go,0.3595242500305176,1.0,,,
SART,4,192.0,2.0,Go,0.2734055519104004,1.0,,,
SART,4,193.0,1.0,Go,0.4001119136810303,1.0,,,
SART,4,194.0,9.0,Go,0.37493467330932617,1.0,,,
SART,4,195.0,8.0,Go,0.3732590675354004,1.0,,,
SART,4,196.0,4.0,Go,0.39356136322021484,1.0,,,
SART,4,197.0,6.0,Go,0.4678058624267578,1.0,,,
SART,4,198.0,9.0,Go,0.5326907634735107,1.0,,,
SART,4,199.0,4.0,Go,0.3941795825958252,1.0,,,
SART,4,200.0,7.0,Go,0.48362135887145996,1.0,,,
SART,4,201.0,6.0,Go,0.5142369270324707,1.0,,,
SART,4,202.0,3.0,NoGo,,1.0,,,
,4,,,,,,4.0,Focus,1.0
,4,,,,,,4.0,Looking,1.0
,4,,,,,,4.0,Awareness,1.0
,4,,,,,,4.0,Intentionality,1.0
,4,,,,,,4.0,Engaging_Thoughts,1.0
,4,,,,,,4.0,Perf_Rating,3.0
,4,,,,,,4.0,Vigilance,3.0
SART,4,203.0,1.0,Go,0.5909779071807861,1.0,,,
SART,4,204.0,5.0,Go,0.28603672981262207,1.0,,,
SART,4,205.0,2.0,Go,0.3778054714202881,1.0,,,
SART,4,206.0,8.0,Go,0.41704225540161133,1.0,,,
SART,4,207.0,7.0,Go,0.3535921573638916,1.0,,,
SART,4,208.0,2.0,Go,0.329944372177124,1.0,,,
SART,4,209.0,6.0,Go,0.3191061019897461,1.0,,,
SART,4,210.0,1.0,Go,0.34804224967956543,1.0,,,
SART,4,211.0,3.0,NoGo,0.27545619010925293,0.0,,,
SART,4,212.0,9.0,Go,0.30399346351623535,1.0,,,
SART,4,213.0,5.0,Go,0.3300912380218506,1.0,,,
SART,4,214.0,8.0,Go,0.36541175842285156,1.0,,,
SART,4,215.0,4.0,Go,0.2928438186645508,1.0,,,
SART,4,216.0,6.0,Go,0.33605432510375977,1.0,,,
SART,4,217.0,4.0,Go,0.3537445068359375,1.0,,,
SART,4,218.0,9.0,Go,0.2973365783691406,1.0,,,
SART,4,219.0,8.0,Go,0.35851287841796875,1.0,,,
SART,4,220.0,5.0,Go,0.4396061897277832,1.0,,,
SART,4,221.0,2.0,Go,0.3538494110107422,1.0,,,
SART,4,222.0,3.0,NoGo,,1.0,,,
SART,4,223.0,7.0,Go,0.28499460220336914,1.0,,,
SART,4,224.0,1.0,Go,0.3356611728668213,1.0,,,
SART,4,225.0,2.0,Go,0.34050822257995605,1.0,,,
SART,4,226.0,8.0,Go,0.4157674312591553,1.0,,,
SART,4,227.0,6.0,Go,0.47070932388305664,1.0,,,
SART,4,228.0,1.0,Go,0.40486907958984375,1.0,,,
SART,4,229.0,4.0,Go,0.3465871810913086,1.0,,,
SART,4,230.0,7.0,Go,0.3108863830566406,1.0,,,
SART,4,231.0,3.0,NoGo,,1.0,,,
SART,4,232.0,5.0,Go,0.34958481788635254,1.0,,,
SART,4,233.0,9.0,Go,0.4339160919189453,1.0,,,
SART,4,234.0,3.0,NoGo,,1.0,,,
SART,4,235.0,2.0,Go,0.30356526374816895,1.0,,,
SART,4,236.0,8.0,Go,0.353041410446167,1.0,,,
SART,4,237.0,4.0,Go,0.4315347671508789,1.0,,,
SART,4,238.0,7.0,Go,0.32773375511169434,1.0,,,
SART,4,239.0,5.0,Go,0.25844693183898926,1.0,,,
SART,4,240.0,6.0,Go,0.34026408195495605,1.0,,,
SART,4,241.0,1.0,Go,0.32476115226745605,1.0,,,
SART,4,242.0,9.0,Go,0.3358910083770752,1.0,,,
SART,4,243.0,6.0,Go,0.301210880279541,1.0,,,
,4,,,,,,5.0,Focus,1.0
,4,,,,,,5.0,Looking,1.0
,4,,,,,,5.0,Awareness,3.0
,4,,,,,,5.0,Intentionality,3.0
,4,,,,,,5.0,Engaging_Thoughts,1.0
,4,,,,,,5.0,Perf_Rating,3.0
,4,,,,,,5.0,Vigilance,3.0
SART,4,244.0,9.0,Go,0.6620681285858154,1.0,,,
SART,4,245.0,1.0,Go,0.3381335735321045,1.0,,,
SART,4,246.0,4.0,Go,0.28137898445129395,1.0,,,
SART,4,247.0,2.0,Go,0.29831361770629883,1.0,,,
SART,4,248.0,3.0,NoGo,,1.0,,,
SART,4,249.0,7.0,Go,0.28769946098327637,1.0,,,
SART,4,250.0,5.0,Go,0.4920823574066162,1.0,,,
SART,4,251.0,8.0,Go,0.31031274795532227,1.0,,,
,4,,,,,,6.0,Focus,1.0
,4,,,,,,6.0,Looking,1.0
,4,,,,,,6.0,Awareness,1.0
,4,,,,,,6.0,Intentionality,1.0
,4,,,,,,6.0,Engaging_Thoughts,1.0
,4,,,,,,6.0,Perf_Rating,4.0
,4,,,,,,6.0,Vigilance,4.0
SART,4,252.0,9.0,Go,0.5405991077423096,1.0,,,
SART,4,253.0,6.0,Go,0.3323936462402344,1.0,,,
SART,4,254.0,3.0,NoGo,0.3293881416320801,0.0,,,
SART,4,255.0,8.0,Go,0.3087654113769531,1.0,,,
SART,4,256.0,4.0,Go,0.3027827739715576,1.0,,,
SART,4,257.0,1.0,Go,0.3658311367034912,1.0,,,
SART,4,258.0,5.0,Go,0.3427290916442871,1.0,,,
SART,4,259.0,7.0,Go,0.35088562965393066,1.0,,,
SART,4,260.0,2.0,Go,0.3310399055480957,1.0,,,
SART,4,261.0,1.0,Go,0.32432031631469727,1.0,,,
SART,4,262.0,9.0,Go,0.3431053161621094,1.0,,,
SART,4,263.0,4.0,Go,0.42090272903442383,1.0,,,
SART,4,264.0,5.0,Go,0.38463830947875977,1.0,,,
SART,4,265.0,7.0,Go,0.4015367031097412,1.0,,,
SART,4,266.0,8.0,Go,,0.0,,,
SART,4,267.0,3.0,NoGo,0.5537176132202148,0.0,,,
SART,4,268.0,6.0,Go,0.42543959617614746,1.0,,,
SART,4,269.0,2.0,Go,0.3349955081939697,1.0,,,
SART,4,270.0,8.0,Go,0.2960703372955322,1.0,,,
SART,4,271.0,4.0,Go,0.38515591621398926,1.0,,,
SART,4,272.0,1.0,Go,0.30631351470947266,1.0,,,
SART,4,273.0,2.0,Go,0.46827173233032227,1.0,,,
SART,4,274.0,5.0,Go,0.4148216247558594,1.0,,,
SART,4,275.0,3.0,NoGo,,1.0,,,
SART,4,276.0,6.0,Go,0.3246803283691406,1.0,,,
SART,4,277.0,7.0,Go,0.44580864906311035,1.0,,,
SART,4,278.0,9.0,Go,0.2812068462371826,1.0,,,
SART,4,279.0,2.0,Go,0.41373467445373535,1.0,,,
SART,4,280.0,1.0,Go,0.3418126106262207,1.0,,,
SART,4,281.0,7.0,Go,0.29769206047058105,1.0,,,
SART,4,282.0,3.0,NoGo,,1.0,,,
SART,4,283.0,8.0,Go,0.3356781005859375,1.0,,,
SART,4,284.0,5.0,Go,0.39510536193847656,1.0,,,
SART,4,285.0,4.0,Go,0.3297884464263916,1.0,,,
SART,4,286.0,6.0,Go,0.2943916320800781,1.0,,,
SART,4,287.0,9.0,Go,0.302701473236084,1.0,,,
SART,4,288.0,6.0,Go,0.43088793754577637,1.0,,,
SART,4,289.0,9.0,Go,0.31192922592163086,1.0,,,
SART,4,290.0,8.0,Go,0.31427597999572754,1.0,,,
SART,4,291.0,1.0,Go,0.44695210456848145,1.0,,,
SART,4,292.0,3.0,NoGo,0.3435695171356201,0.0,,,
SART,4,293.0,2.0,Go,0.2916378974914551,1.0,,,
SART,4,294.0,5.0,Go,0.32499122619628906,1.0,,,
SART,4,295.0,7.0,Go,0.2696397304534912,1.0,,,
SART,4,296.0,4.0,Go,0.28060102462768555,1.0,,,
SART,4,297.0,5.0,Go,0.2747683525085449,1.0,,,
SART,4,298.0,9.0,Go,0.310793399810791,1.0,,,
SART,4,299.0,8.0,Go,0.36746644973754883,1.0,,,
,4,,,,,,7.0,Focus,2.0
,4,,,,,,7.0,Looking,1.0
,4,,,,,,7.0,Awareness,1.0
,4,,,,,,7.0,Intentionality,1.0
,4,,,,,,7.0,Engaging_Thoughts,1.0
,4,,,,,,7.0,Perf_Rating,3.0
,4,,,,,,7.0,Vigilance,3.0
SART,4,300.0,7.0,Go,0.7886767387390137,1.0,,,
SART,4,301.0,6.0,Go,0.33820581436157227,1.0,,,
SART,4,302.0,3.0,NoGo,0.32436347007751465,0.0,,,
SART,4,303.0,2.0,Go,0.2553575038909912,1.0,,,
SART,4,304.0,4.0,Go,0.2811853885650635,1.0,,,
SART,4,305.0,1.0,Go,0.3242068290710449,1.0,,,
SART,4,306.0,2.0,Go,0.2781374454498291,1.0,,,
SART,4,307.0,4.0,Go,0.29646730422973633,1.0,,,
SART,4,308.0,7.0,Go,0.3481924533843994,1.0,,,
SART,4,309.0,9.0,Go,0.3245515823364258,1.0,,,
SART,4,310.0,8.0,Go,0.3906676769256592,1.0,,,
SART,4,311.0,5.0,Go,0.3519704341888428,1.0,,,
SART,4,312.0,1.0,Go,0.5950562953948975,1.0,,,
SART,4,313.0,6.0,Go,0.38002705574035645,1.0,,,
SART,4,314.0,3.0,NoGo,,1.0,,,
SART,4,315.0,2.0,Go,0.2898871898651123,1.0,,,
SART,4,316.0,9.0,Go,0.3432791233062744,1.0,,,
SART,4,317.0,7.0,Go,0.43131017684936523,1.0,,,
SART,4,318.0,4.0,Go,0.3170795440673828,1.0,,,
SART,4,319.0,3.0,NoGo,0.2943735122680664,0.0,,,
SART,4,320.0,8.0,Go,0.36444592475891113,1.0,,,
SART,4,321.0,6.0,Go,0.2972416877746582,1.0,,,
SART,4,322.0,5.0,Go,0.31267476081848145,1.0,,,
SART,4,323.0,1.0,Go,0.49533510208129883,1.0,,,
SART,4,324.0,8.0,Go,0.5051815509796143,1.0,,,
SART,4,325.0,5.0,Go,0.45805811882019043,1.0,,,
SART,4,326.0,7.0,Go,0.33002495765686035,1.0,,,
SART,4,327.0,4.0,Go,0.48557043075561523,1.0,,,
SART,4,328.0,6.0,Go,0.4820084571838379,1.0,,,
SART,4,329.0,2.0,Go,0.2981290817260742,1.0,,,
SART,4,330.0,3.0,NoGo,,1.0,,,
SART,4,331.0,1.0,Go,0.26580286026000977,1.0,,,
SART,4,332.0,9.0,Go,0.299454927444458,1.0,,,
SART,4,333.0,5.0,Go,0.29970335960388184,1.0,,,
SART,4,334.0,1.0,Go,0.3725616931915283,1.0,,,
SART,4,335.0,6.0,Go,0.4395623207092285,1.0,,,
SART,4,336.0,9.0,Go,0.36402392387390137,1.0,,,
SART,4,337.0,3.0,NoGo,,1.0,,,
SART,4,338.0,8.0,Go,0.3222794532775879,1.0,,,
SART,4,339.0,4.0,Go,0.48221492767333984,1.0,,,
SART,4,340.0,7.0,Go,0.31057190895080566,1.0,,,
SART,4,341.0,2.0,Go,0.31105875968933105,1.0,,,
SART,4,342.0,4.0,Go,0.3189511299133301,1.0,,,
SART,4,343.0,8.0,Go,0.37818217277526855,1.0,,,
SART,4,344.0,7.0,Go,0.3332843780517578,1.0,,,
SART,4,345.0,9.0,Go,0.3144052028656006,1.0,,,
SART,4,346.0,6.0,Go,0.3206672668457031,1.0,,,
SART,4,347.0,2.0,Go,0.36327242851257324,1.0,,,
SART,4,348.0,1.0,Go,0.2930130958557129,1.0,,,
SART,4,349.0,3.0,NoGo,0.33461666107177734,0.0,,,
SART,4,350.0,5.0,Go,0.2953824996948242,1.0,,,
SART,4,351.0,8.0,Go,0.27353358268737793,1.0,,,
SART,4,352.0,6.0,Go,0.2887754440307617,1.0,,,
SART,4,353.0,4.0,Go,0.25786352157592773,1.0,,,
SART,4,354.0,1.0,Go,0.29695558547973633,1.0,,,
SART,4,355.0,7.0,Go,0.42290639877319336,1.0,,,
SART,4,356.0,9.0,Go,0.2996542453765869,1.0,,,
,4,,,,,,8.0,Focus,2.0
,4,,,,,,8.0,Looking,1.0
,4,,,,,,8.0,Awareness,1.0
,4,,,,,,8.0,Intentionality,1.0
,4,,,,,,8.0,Engaging_Thoughts,1.0
,4,,,,,,8.0,Perf_Rating,2.0
,4,,,,,,8.0,Vigilance,2.0
,4,,,,,,9.0,Focus,2.0
,4,,,,,,9.0,Looking,2.0
,4,,,,,,9.0,Awareness,3.0
,4,,,,,,9.0,Intentionality,3.0
,4,,,,,,9.0,Engaging_Thoughts,3.0
,4,,,,,,9.0,Perf_Rating,1.0
,4,,,,,,9.0,Vigilance,1.0
SART,4,357.0,3.0,NoGo,,1.0,,,
